time,seconds_elapsed,z,y,x
1729114709820139300,0.07613916015625,9.614062309265137,-0.021236300468444824,-0.17706887423992157
1729114709858073600,0.114073486328125,10.100104331970215,-0.09541380405426025,-0.14117653667926788
1729114709896008000,0.152008056640625,9.731310844421387,-0.03559323772788048,-0.17706887423992157
1729114709933942300,0.1899423828125,10.008877754211426,-0.08344969153404236,-0.16031911969184875
1729114709971876400,0.22787646484375,9.822237968444824,-0.05952146276831627,-0.17706887423992157
1729114710009810700,0.265810791015625,9.961021423339844,-0.07387840002775192,-0.1746760457754135
1729114710047745000,0.3037451171875,9.846165657043457,-0.05712864175438881,-0.18424734473228455
1729114710085679400,0.341679443359375,9.925128936767578,-0.08344969153404236,-0.19381862878799438
1729114710123613700,0.37961376953125,9.87966537475586,-0.06191428750753403,-0.1746760457754135
1729114710161548000,0.417548095703125,9.917950630187988,-0.05473581701517105,-0.16749759018421173
1729114710199482000,0.455482177734375,9.894022941589355,-0.05712864175438881,-0.17946170270442963
1729114710237416400,0.49341650390625,9.894022941589355,-0.06191428750753403,-0.1746760457754135
1729114710275350800,0.531350830078125,9.891630172729492,-0.06191428750753403,-0.1698904037475586
1729114710313285000,0.56928515625,9.901201248168945,-0.06191428750753403,-0.1818545162677765
1729114710351219200,0.60721923828125,9.891630172729492,-0.06191428750753403,-0.18424734473228455
1729114710389153500,0.645153564453125,9.87966537475586,-0.05234299600124359,-0.1698904037475586
1729114710427088000,0.683087890625,9.898808479309082,-0.06669992953538895,-0.18903298676013947
1729114710465022200,0.721022216796875,9.898808479309082,-0.06669992953538895,-0.15314064919948578
1729114710502956500,0.75895654296875,9.889236450195312,-0.06191428750753403,-0.1818545162677765
1729114710540891000,0.796890869140625,9.891630172729492,-0.05473581701517105,-0.16510476171970367
1729114710578825000,0.834824951171875,9.891630172729492,-0.0810568705201149,-0.1746760457754135
1729114710616759300,0.87275927734375,9.901201248168945,-0.04995017126202583,-0.16271193325519562
1729114710654693600,0.910693603515625,9.898808479309082,-0.0690927505493164,-0.18903298676013947
1729114710692628000,0.9486279296875,9.884450912475586,-0.04755735024809837,-0.16510476171970367
1729114710730562300,0.986562255859375,9.898808479309082,-0.06430710852146149,-0.17706887423992157
1729114710768496400,1.024496337890625,9.882058143615723,-0.06430710852146149,-0.16749759018421173
1729114710806430700,1.0624306640625,9.920343399047852,-0.06669992953538895,-0.1698904037475586
1729114710844365000,1.100364990234375,9.877272605895996,-0.06430710852146149,-0.17706887423992157
1729114710882299400,1.13829931640625,9.903594017028809,-0.07148557901382446,-0.16510476171970367
1729114710920233700,1.176233642578125,9.87966537475586,-0.0690927505493164,-0.17706887423992157
1729114710958168000,1.21416796875,9.908379554748535,-0.06191428750753403,-0.18424734473228455
1729114710996102100,1.25210205078125,9.87966537475586,-0.05952146276831627,-0.1818545162677765
1729114711034036500,1.290036376953125,9.901201248168945,-0.0810568705201149,-0.1866401731967926
1729114711071970800,1.327970703125,9.889236450195312,-0.05473581701517105,-0.17946170270442963
1729114711109905200,1.3659052734375,9.901201248168945,-0.06430710852146149,-0.16749759018421173
1729114711147839500,1.403839599609375,9.889236450195312,-0.06191428750753403,-0.18424734473228455
1729114711185773600,1.441773681640625,9.913165092468262,-0.05952146276831627,-0.1746760457754135
1729114711223708000,1.4797080078125,9.896415710449219,-0.07148557901382446,-0.1866401731967926
1729114711261642200,1.517642333984375,9.891630172729492,-0.07627122104167938,-0.1818545162677765
1729114711299576600,1.55557666015625,9.894022941589355,-0.06669992953538895,-0.18424734473228455
1729114711337511000,1.593510986328125,9.889236450195312,-0.07148557901382446,-0.16749759018421173
1729114711375445200,1.6314453125,9.905986785888672,-0.07148557901382446,-0.1698904037475586
1729114711413379600,1.669379638671875,9.894022941589355,-0.05234299600124359,-0.16510476171970367
1729114711451313700,1.707313720703125,9.898808479309082,-0.06191428750753403,-0.1579262912273407
1729114711489248000,1.745248046875,9.891630172729492,-0.06191428750753403,-0.18903298676013947
1729114711527182300,1.783182373046875,9.884450912475586,-0.07387840002775192,-0.18903298676013947
1729114711565116700,1.82111669921875,9.88684368133545,-0.0690927505493164,-0.1866401731967926
1729114711603050800,1.85905078125,9.896415710449219,-0.06430710852146149,-0.16271193325519562
1729114711640985000,1.896985107421875,9.898808479309082,-0.05952146276831627,-0.18424734473228455
1729114711678919400,1.93491943359375,9.889236450195312,-0.06430710852146149,-0.16749759018421173
1729114711716853800,1.972853759765625,9.896415710449219,-0.05952146276831627,-0.17706887423992157
1729114711754788000,2.0107880859375,9.896415710449219,-0.06669992953538895,-0.1698904037475586
1729114711792722400,2.048722412109375,9.908379554748535,-0.07387840002775192,-0.1818545162677765
1729114711830656800,2.08665673828125,9.87248706817627,-0.06191428750753403,-0.18424734473228455
1729114711868591000,2.124591064453125,9.901201248168945,-0.06669992953538895,-0.16031911969184875
1729114711906525200,2.162525146484375,9.896415710449219,-0.06191428750753403,-0.1698904037475586
1729114711944459500,2.20045947265625,9.882058143615723,-0.05473581701517105,-0.15553347766399384
1729114711982393900,2.238393798828125,9.891630172729492,-0.06430710852146149,-0.18903298676013947
1729114712020328200,2.276328125,9.894022941589355,-0.06430710852146149,-0.16510476171970367
1729114712058262500,2.314262451171875,9.889236450195312,-0.0690927505493164,-0.17946170270442963
1729114712096196900,2.35219677734375,9.891630172729492,-0.06191428750753403,-0.15314064919948578
1729114712134131200,2.390131103515625,9.896415710449219,-0.05234299600124359,-0.16749759018421173
1729114712172065300,2.428065185546875,9.889236450195312,-0.0690927505493164,-0.16749759018421173
1729114712209999600,2.46599951171875,9.884450912475586,-0.06191428750753403,-0.17946170270442963
1729114712247934000,2.503933837890625,9.889236450195312,-0.06191428750753403,-0.17228323221206665
1729114712285868300,2.541868408203125,9.898808479309082,-0.06430710852146149,-0.16031911969184875
1729114712323802600,2.579802734375,9.88684368133545,-0.05952146276831627,-0.17228323221206665
1729114712361737000,2.617737060546875,9.905986785888672,-0.0690927505493164,-0.16749759018421173
1729114712399671300,2.65567138671875,9.882058143615723,-0.0690927505493164,-0.1698904037475586
1729114712437605400,2.69360546875,9.903594017028809,-0.06430710852146149,-0.16749759018421173
1729114712475539700,2.731539794921875,9.88684368133545,-0.07148557901382446,-0.17706887423992157
1729114712513474000,2.76947412109375,9.896415710449219,-0.07148557901382446,-0.1698904037475586
1729114712551408400,2.807408447265625,9.894022941589355,-0.0690927505493164,-0.1746760457754135
1729114712589342700,2.8453427734375,9.901201248168945,-0.05473581701517105,-0.1698904037475586
1729114712627277000,2.883277099609375,9.896415710449219,-0.0690927505493164,-0.1698904037475586
1729114712665210000,2.921210205078125,9.896415710449219,-0.06191428750753403,-0.1698904037475586
1729114712703144000,2.95914404296875,9.894022941589355,-0.06669992953538895,-0.18424734473228455
1729114712741078300,2.997078369140625,9.894022941589355,-0.06669992953538895,-0.17228323221206665
1729114712779012400,3.035012451171875,9.894022941589355,-0.05473581701517105,-0.17706887423992157
1729114712816946700,3.07294677734375,9.889236450195312,-0.05952146276831627,-0.17228323221206665
1729114712854881000,3.110881103515625,9.898808479309082,-0.06191428750753403,-0.16749759018421173
1729114712892815400,3.1488154296875,9.88684368133545,-0.0690927505493164,-0.17706887423992157
1729114712930749700,3.186749755859375,9.88684368133545,-0.05234299600124359,-0.17228323221206665
1729114712968684000,3.22468408203125,9.898808479309082,-0.06430710852146149,-0.17706887423992157
1729114713006618400,3.262618408203125,9.898808479309082,-0.07387840002775192,-0.17228323221206665
1729114713044552400,3.300552490234375,9.884450912475586,-0.06191428750753403,-0.17706887423992157
1729114713082486800,3.33848681640625,9.903594017028809,-0.06191428750753403,-0.18424734473228455
1729114713120421000,3.376421142578125,9.903594017028809,-0.07866404205560684,-0.18903298676013947
1729114713158355500,3.41435546875,9.882058143615723,-0.06191428750753403,-0.17706887423992157
1729114713196289800,3.452289794921875,9.908379554748535,-0.07148557901382446,-0.1986042857170105
1729114713234224000,3.49022412109375,9.882058143615723,-0.05234299600124359,-0.1818545162677765
1729114713272158500,3.528158447265625,9.913165092468262,-0.06669992953538895,-0.1986042857170105
1729114713310092800,3.5660927734375,9.891630172729492,-0.05952146276831627,-0.1818545162677765
1729114713348027000,3.60402685546875,9.891630172729492,-0.0690927505493164,-0.17228323221206665
1729114713385961200,3.641961181640625,9.882058143615723,-0.06191428750753403,-0.17946170270442963
1729114713423895600,3.6798955078125,9.903594017028809,-0.06669992953538895,-0.1818545162677765
1729114713461830000,3.717829833984375,9.87966537475586,-0.06669992953538895,-0.17706887423992157
1729114713499764200,3.75576416015625,9.894022941589355,-0.06430710852146149,-0.18424734473228455
1729114713537698600,3.793698486328125,9.87966537475586,-0.06191428750753403,-0.1746760457754135
1729114713575633000,3.8316328125,9.913165092468262,-0.07627122104167938,-0.16510476171970367
1729114713613567000,3.86956689453125,9.894022941589355,-0.06669992953538895,-0.17228323221206665
1729114713651501300,3.907501220703125,9.908379554748535,-0.05952146276831627,-0.16749759018421173
1729114713689435600,3.945435546875,9.891630172729492,-0.07627122104167938,-0.18424734473228455
1729114713727370000,3.983369873046875,9.901201248168945,-0.06669992953538895,-0.17706887423992157
1729114713765304300,4.02130419921875,9.87966537475586,-0.05712864175438881,-0.1698904037475586
1729114713803238700,4.05923876953125,9.889236450195312,-0.05712864175438881,-0.1698904037475586
1729114713841173000,4.097173095703125,9.891630172729492,-0.0690927505493164,-0.16271193325519562
1729114713879107300,4.135107421875,9.903594017028809,-0.05952146276831627,-0.1579262912273407
1729114713917041700,4.173041748046875,9.891630172729492,-0.05952146276831627,-0.1698904037475586
1729114713954976000,4.21097607421875,9.901201248168945,-0.05234299600124359,-0.1746760457754135
1729114713992910300,4.248910400390625,9.889236450195312,-0.06430710852146149,-0.18424734473228455
1729114714030844400,4.286844482421875,9.898808479309082,-0.06669992953538895,-0.1866401731967926
1729114714068778800,4.32477880859375,9.901201248168945,-0.07148557901382446,-0.17706887423992157
1729114714106713000,4.362713134765625,9.896415710449219,-0.07148557901382446,-0.18424734473228455
1729114714144647400,4.4006474609375,9.896415710449219,-0.05952146276831627,-0.1698904037475586
1729114714182581800,4.438581787109375,9.894022941589355,-0.05712864175438881,-0.1818545162677765
1729114714220516000,4.47651611328125,9.901201248168945,-0.06430710852146149,-0.1698904037475586
1729114714258450400,4.514450439453125,9.896415710449219,-0.07627122104167938,-0.17946170270442963
1729114714296384800,4.552384765625,9.889236450195312,-0.06191428750753403,-0.1818545162677765
1729114714334319000,4.590319091796875,9.896415710449219,-0.05712864175438881,-0.18903298676013947
1729114714372253200,4.628253173828125,9.877272605895996,-0.06191428750753403,-0.17228323221206665
1729114714410187500,4.6661875,9.910772323608398,-0.06669992953538895,-0.16510476171970367
1729114714448121900,4.704121826171875,9.87966537475586,-0.05952146276831627,-0.17946170270442963
1729114714486056200,4.74205615234375,9.905986785888672,-0.05712864175438881,-0.17228323221206665
1729114714523990500,4.779990478515625,9.877272605895996,-0.06669992953538895,-0.1698904037475586
1729114714561924900,4.8179248046875,9.905986785888672,-0.06669992953538895,-0.17946170270442963
1729114714599859200,4.855859130859375,9.898808479309082,-0.07866404205560684,-0.16271193325519562
1729114714637793500,4.89379345703125,9.896415710449219,-0.0690927505493164,-0.1746760457754135
1729114714675728000,4.931727783203125,9.884450912475586,-0.06191428750753403,-0.16271193325519562
1729114714713662200,4.969662109375,9.905986785888672,-0.05952146276831627,-0.17228323221206665
1729114714751596500,5.007596435546875,9.896415710449219,-0.0690927505493164,-0.16031911969184875
1729114714789530600,5.045530517578125,9.891630172729492,-0.06191428750753403,-0.17228323221206665
1729114714827465000,5.08346484375,9.891630172729492,-0.05952146276831627,-0.17946170270442963
1729114714865399300,5.1213994140625,9.901201248168945,-0.07148557901382446,-0.17228323221206665
1729114714903333600,5.159333740234375,9.898808479309082,-0.06430710852146149,-0.1818545162677765
1729114714941268000,5.19726806640625,9.891630172729492,-0.06430710852146149,-0.16749759018421173
1729114714979202300,5.235202392578125,9.88684368133545,-0.05473581701517105,-0.16271193325519562
1729114715017136600,5.27313671875,9.894022941589355,-0.05473581701517105,-0.17228323221206665
1729114715055071000,5.311071044921875,9.891630172729492,-0.05952146276831627,-0.17228323221206665
1729114715093005300,5.34900537109375,9.882058143615723,-0.0690927505493164,-0.17706887423992157
1729114715130939600,5.386939697265625,9.896415710449219,-0.06669992953538895,-0.16749759018421173
1729114715168873700,5.424873779296875,9.910772323608398,-0.07148557901382446,-0.3684946894645691
1729114715206808000,5.46280810546875,9.728918075561523,0.01944168470799923,0.1989033818244934
1729114715244742400,5.500742431640625,9.891630172729492,-0.042771704494953156,-0.2679961323738098
1729114715282676700,5.5386767578125,9.599705696105957,0.031405795365571976,-0.05742774158716202
1729114715320611000,5.576611083984375,10.054640769958496,0.01944168470799923,0.12472587823867798
1729114715358545400,5.61454541015625,9.84855842590332,-0.07866404205560684,-0.30149564146995544
1729114715396479700,5.652479736328125,9.932307243347168,-0.06430710852146149,-0.064606212079525
1729114715434414000,5.6904140625,9.829416275024414,-0.042771704494953156,-0.25363919138908386
1729114715472348400,5.728348388671875,9.9442720413208,-0.05473581701517105,-0.14117653667926788
1729114715510282800,5.76628271484375,9.870094299316406,-0.05234299600124359,-0.2105683982372284
1729114715548217000,5.804217041015625,9.908379554748535,-0.06191428750753403,-0.14117653667926788
1729114715586151400,5.8421513671875,9.88684368133545,-0.06669992953538895,-0.19142581522464752
1729114715624085800,5.880085693359375,9.913165092468262,-0.0690927505493164,-0.1579262912273407
1729114715662019800,5.918019775390625,9.903594017028809,-0.04995017126202583,-0.18424734473228455
1729114715699954200,5.9559541015625,9.901201248168945,-0.05712864175438881,-0.16510476171970367
1729114715737888500,5.993888427734375,9.896415710449219,-0.05952146276831627,-0.17228323221206665
1729114715775822800,6.03182275390625,9.88684368133545,-0.06191428750753403,-0.16271193325519562
1729114715813757200,6.069757080078125,9.901201248168945,-0.05473581701517105,-0.17946170270442963
1729114715851691500,6.10769140625,9.882058143615723,-0.05234299600124359,-0.16271193325519562
1729114715889625900,6.1456259765625,9.898808479309082,-0.06191428750753403,-0.16749759018421173
1729114715927560200,6.183560302734375,9.891630172729492,-0.05952146276831627,-0.16749759018421173
1729114715965494500,6.22149462890625,9.901201248168945,-0.06191428750753403,-0.16510476171970367
1729114716003428600,6.2594287109375,9.891630172729492,-0.05952146276831627,-0.1698904037475586
1729114716041363200,6.29736328125,9.903594017028809,-0.06669992953538895,-0.1698904037475586
1729114716079297500,6.335297607421875,9.891630172729492,-0.06430710852146149,-0.17228323221206665
1729114716117231600,6.373231689453125,9.905986785888672,-0.06191428750753403,-0.17706887423992157
1729114716155166000,6.411166015625,9.88684368133545,-0.06191428750753403,-0.16749759018421173
1729114716193100300,6.449100341796875,9.901201248168945,-0.06191428750753403,-0.17228323221206665
1729114716231034600,6.48703466796875,9.901201248168945,-0.06669992953538895,-0.17228323221206665
1729114716268969000,6.524968994140625,9.889236450195312,-0.05712864175438881,-0.17228323221206665
1729114716306903300,6.5629033203125,9.894022941589355,-0.06669992953538895,-0.1698904037475586
1729114716344837600,6.600837646484375,9.882058143615723,-0.06191428750753403,-0.16510476171970367
1729114716382772000,6.63877197265625,9.910772323608398,-0.06669992953538895,-0.1818545162677765
1729114716420706300,6.676706298828125,9.891630172729492,-0.06430710852146149,-0.17946170270442963
1729114716458640600,6.714640625,9.889236450195312,-0.0690927505493164,-0.18903298676013947
1729114716496575000,6.752574951171875,9.905986785888672,-0.05952146276831627,-0.17228323221206665
1729114716534509300,6.79050927734375,9.884450912475586,-0.06191428750753403,-0.17706887423992157
1729114716572443600,6.828443603515625,9.898808479309082,-0.05712864175438881,-0.17228323221206665
1729114716610378000,6.8663779296875,9.889236450195312,-0.06430710852146149,-0.17946170270442963
1729114716648312300,6.904312255859375,9.905986785888672,-0.0690927505493164,-0.1746760457754135
1729114716686246700,6.94224658203125,9.891630172729492,-0.0690927505493164,-0.17706887423992157
1729114716724181000,6.980180908203125,9.882058143615723,-0.05952146276831627,-0.1698904037475586
1729114716762115300,7.018115234375,9.896415710449219,-0.06191428750753403,-0.17706887423992157
1729114716800049700,7.056049560546875,9.889236450195312,-0.05952146276831627,-0.1698904037475586
1729114716837984000,7.09398388671875,9.891630172729492,-0.05712864175438881,-0.16510476171970367
1729114716875918000,7.13191796875,9.901201248168945,-0.06669992953538895,-0.1698904037475586
1729114716913852400,7.169852294921875,9.88684368133545,-0.05473581701517105,-0.1698904037475586
1729114716951787000,7.207787109375,9.894022941589355,-0.06191428750753403,-0.17706887423992157
1729114716989721000,7.24572119140625,9.88684368133545,-0.06669992953538895,-0.17706887423992157
1729114717027655400,7.283655517578125,9.889236450195312,-0.05952146276831627,-0.1746760457754135
1729114717065589800,7.32158984375,9.874879837036133,-0.06191428750753403,-0.16510476171970367
1729114717103524000,7.359524169921875,9.913165092468262,-0.05473581701517105,-0.17706887423992157
1729114717141458400,7.39745849609375,9.88684368133545,-0.06191428750753403,-0.1698904037475586
1729114717179392800,7.435392822265625,9.917950630187988,-0.05712864175438881,-0.17228323221206665
1729114717217327000,7.4733271484375,9.884450912475586,-0.05952146276831627,-0.16271193325519562
1729114717255261400,7.511261474609375,9.867701530456543,-0.05712864175438881,-0.05024927482008934
1729114717293195800,7.54919580078125,9.898808479309082,-0.08344969153404236,-0.3086741268634796
1729114717331130000,7.587130126953125,9.905986785888672,-0.04755735024809837,-0.05024927482008934
1729114717369064400,7.625064453125,9.891630172729492,-0.05473581701517105,-0.25363919138908386
1729114717406998800,7.662998779296875,9.88684368133545,-0.04995017126202583,-0.11964113265275955
1729114717444933000,7.70093310546875,9.905986785888672,-0.05234299600124359,-0.21774685382843018
1729114717482867500,7.738867431640625,9.88684368133545,-0.05234299600124359,-0.1459621787071228
1729114717520801800,7.7768017578125,9.910772323608398,-0.05712864175438881,-0.20099709928035736
1729114717558736100,7.814736083984375,9.898808479309082,-0.0690927505493164,-0.15074782073497772
1729114717596670500,7.85267041015625,9.896415710449219,-0.06191428750753403,-0.19381862878799438
1729114717634604800,7.890604736328125,9.894022941589355,-0.06191428750753403,-0.16510476171970367
1729114717672539100,7.9285390625,9.898808479309082,-0.05952146276831627,-0.18424734473228455
1729114717710473500,7.966473388671875,9.889236450195312,-0.06191428750753403,-0.17946170270442963
1729114717748407800,8.00440771484375,9.896415710449219,-0.06669992953538895,-0.1746760457754135
1729114717786342100,8.042342041015624,9.88684368133545,-0.06430710852146149,-0.17706887423992157
1729114717824276500,8.0802763671875,9.901201248168945,-0.05473581701517105,-0.1746760457754135
1729114717862210800,8.1182109375,9.884450912475586,-0.07148557901382446,-0.17706887423992157
1729114717900145000,8.156144775390626,9.905986785888672,-0.06669992953538895,-0.17946170270442963
1729114717938079200,8.194079345703125,9.88684368133545,-0.05952146276831627,-0.16749759018421173
1729114717976013800,8.232013916015624,9.901201248168945,-0.06669992953538895,-0.16749759018421173
1729114718013948200,8.2699482421875,9.882058143615723,-0.06430710852146149,-0.16749759018421173
1729114718051882200,8.30788232421875,9.898808479309082,-0.06669992953538895,-0.16749759018421173
1729114718089816600,8.345816650390624,9.884450912475586,-0.06430710852146149,-0.16510476171970367
1729114718127751000,8.3837509765625,9.87966537475586,-0.05234299600124359,-0.16510476171970367
1729114718165685500,8.421685546875,9.910772323608398,-0.06669992953538895,-0.18424734473228455
1729114718203619600,8.45961962890625,9.894022941589355,-0.05473581701517105,-0.1746760457754135
1729114718241554000,8.497553955078125,9.896415710449219,-0.0690927505493164,-0.17706887423992157
1729114718279488300,8.53548828125,9.896415710449219,-0.06430710852146149,-0.17228323221206665
1729114718317422600,8.573422607421875,9.88684368133545,-0.06669992953538895,-0.1818545162677765
1729114718355357000,8.61135693359375,9.898808479309082,-0.05952146276831627,-0.17228323221206665
1729114718393291300,8.649291259765626,9.901201248168945,-0.0690927505493164,-0.16749759018421173
1729114718431225600,8.6872255859375,9.901201248168945,-0.05952146276831627,-0.17946170270442963
1729114718469160000,8.725159912109374,9.903594017028809,-0.06430710852146149,-0.16510476171970367
1729114718507094300,8.76309423828125,9.889236450195312,-0.04995017126202583,-0.17228323221206665
1729114718545028600,8.801028564453125,9.901201248168945,-0.05234299600124359,-0.1698904037475586
1729114718582963000,8.838962890625,9.889236450195312,-0.06669992953538895,-0.18424734473228455
1729114718620897300,8.876897216796875,9.889236450195312,-0.06191428750753403,-0.1698904037475586
1729114718658831600,8.91483154296875,9.903594017028809,-0.042771704494953156,-0.1698904037475586
1729114718696766000,8.952765869140626,9.891630172729492,-0.05234299600124359,-0.16749759018421173
1729114718734700300,8.9907001953125,9.898808479309082,-0.0690927505493164,-0.16749759018421173
1729114718772634600,9.028634521484374,9.889236450195312,-0.0690927505493164,-0.19381862878799438
1729114718810569000,9.06656884765625,9.891630172729492,-0.0690927505493164,-0.1698904037475586
1729114718848503300,9.10450341796875,9.889236450195312,-0.07148557901382446,-0.17946170270442963
1729114718886437600,9.142437744140626,9.905986785888672,-0.0690927505493164,-0.1746760457754135
1729114718924372200,9.180372314453125,9.896415710449219,-0.07148557901382446,-0.17228323221206665
1729114718962306300,9.218306396484374,9.889236450195312,-0.06191428750753403,-0.16031911969184875
1729114719000240600,9.25624072265625,9.898808479309082,-0.05952146276831627,-0.17228323221206665
1729114719038175200,9.29417529296875,9.901201248168945,-0.05952146276831627,-0.16749759018421173
1729114719076109600,9.332109619140626,9.88684368133545,-0.06191428750753403,-0.16510476171970367
1729114719114043600,9.370043701171875,9.896415710449219,-0.05712864175438881,-0.16749759018421173
1729114719151978200,9.407978271484374,9.898808479309082,-0.05234299600124359,-0.1746760457754135
1729114719189912600,9.44591259765625,9.903594017028809,-0.05952146276831627,-0.15074782073497772
1729114719227847000,9.483846923828125,9.894022941589355,-0.05234299600124359,-0.16510476171970367
1729114719265781200,9.52178125,9.884450912475586,-0.06191428750753403,-0.16749759018421173
1729114719303715600,9.559715576171875,9.898808479309082,-0.06430710852146149,-0.16510476171970367
1729114719341650000,9.59764990234375,9.896415710449219,-0.06430710852146149,-0.17706887423992157
1729114719379584300,9.635584228515626,9.889236450195312,-0.05712864175438881,-0.16271193325519562
1729114719417518600,9.6735185546875,9.908379554748535,-0.0810568705201149,-0.17946170270442963
1729114719455453000,9.711452880859374,9.88684368133545,-0.06191428750753403,-0.16749759018421173
1729114719493387300,9.74938720703125,9.901201248168945,-0.05952146276831627,-0.16271193325519562
1729114719531321600,9.787321533203125,9.905986785888672,-0.06191428750753403,-0.1698904037475586
1729114719569256000,9.825255859375,9.898808479309082,-0.0690927505493164,-0.18903298676013947
1729114719607190300,9.863190185546875,9.901201248168945,-0.05712864175438881,-0.17228323221206665
1729114719645124600,9.90112451171875,9.896415710449219,-0.05473581701517105,-0.1746760457754135
1729114719683059000,9.939058837890625,9.88684368133545,-0.06191428750753403,-0.16749759018421173
1729114719720993300,9.9769931640625,9.896415710449219,-0.05712864175438881,-0.16271193325519562
1729114719758927600,10.014927734375,9.896415710449219,-0.05952146276831627,-0.16031911969184875
1729114719796862000,10.052862060546875,9.894022941589355,-0.05473581701517105,-0.1746760457754135
1729114719834796300,10.09079638671875,9.901201248168945,-0.05712864175438881,-0.1746760457754135
1729114719872730600,10.128730712890626,9.910772323608398,-0.06191428750753403,-0.16749759018421173
1729114719910665000,10.1666650390625,9.898808479309082,-0.07866404205560684,-0.17706887423992157
1729114719948599300,10.204599365234374,9.901201248168945,-0.06191428750753403,-0.15553347766399384
1729114719986533600,10.24253369140625,9.905986785888672,-0.05952146276831627,-0.18424734473228455
1729114720024468000,10.280468017578125,9.88684368133545,-0.05712864175438881,-0.16510476171970367
1729114720062402300,10.31840234375,9.903594017028809,-0.06191428750753403,-0.1746760457754135
1729114720100336600,10.356336669921875,9.896415710449219,-0.06669992953538895,-0.16749759018421173
1729114720138271200,10.394271240234374,9.889236450195312,-0.0690927505493164,-0.17228323221206665
1729114720176205300,10.432205322265625,9.894022941589355,-0.05952146276831627,-0.17228323221206665
1729114720214140000,10.470139892578125,9.894022941589355,-0.06191428750753403,-0.17706887423992157
1729114720252074200,10.50807421875,9.905986785888672,-0.06430710852146149,-0.17706887423992157
1729114720290008600,10.546008544921875,9.901201248168945,-0.06430710852146149,-0.1746760457754135
1729114720327943000,10.58394287109375,9.889236450195312,-0.0690927505493164,-0.17228323221206665
1729114720365877200,10.621877197265626,9.908379554748535,-0.06669992953538895,-0.18903298676013947
1729114720403811600,10.6598115234375,9.898808479309082,-0.05473581701517105,-0.17946170270442963
1729114720441746000,10.697745849609374,9.896415710449219,-0.06669992953538895,-0.17706887423992157
1729114720479680300,10.73568017578125,9.88684368133545,-0.07387840002775192,-0.16749759018421173
1729114720517614600,10.773614501953125,9.889236450195312,-0.06430710852146149,-0.16749759018421173
1729114720555549000,10.811548828125,9.891630172729492,-0.04995017126202583,-0.1698904037475586
1729114720593483300,10.849483154296875,9.87966537475586,-0.0690927505493164,-0.1698904037475586
1729114720631417600,10.88741748046875,9.896415710449219,-0.05473581701517105,-0.1698904037475586
1729114720669352000,10.92535205078125,9.884450912475586,-0.0690927505493164,-0.17228323221206665
1729114720707286300,10.963286376953125,9.884450912475586,-0.06191428750753403,-0.16749759018421173
1729114720745220600,11.001220703125,9.891630172729492,-0.06191428750753403,-0.17228323221206665
1729114720783155200,11.0391552734375,9.896415710449219,-0.06191428750753403,-0.17706887423992157
1729114720821089300,11.07708935546875,9.889236450195312,-0.05473581701517105,-0.1746760457754135
1729114720859024000,11.11502392578125,9.908379554748535,-0.06430710852146149,-0.1746760457754135
1729114720896958200,11.152958251953125,9.88684368133545,-0.05234299600124359,-0.1698904037475586
1729114720934892500,11.190892578125,9.903594017028809,-0.06430710852146149,-0.17228323221206665
1729114720972827000,11.228826904296875,9.894022941589355,-0.0690927505493164,-0.16271193325519562
1729114721010761200,11.26676123046875,9.891630172729492,-0.07627122104167938,-0.17228323221206665
1729114721048695600,11.304695556640626,9.889236450195312,-0.07148557901382446,-0.17706887423992157
1729114721086630000,11.3426298828125,9.898808479309082,-0.06430710852146149,-0.1698904037475586
1729114721124564200,11.380564208984374,9.898808479309082,-0.07387840002775192,-0.1818545162677765
1729114721162498600,11.41849853515625,9.901201248168945,-0.05473581701517105,-0.1746760457754135
1729114721200433000,11.456432861328125,9.891630172729492,-0.0690927505493164,-0.1866401731967926
1729114721238367500,11.494367431640624,9.903594017028809,-0.05712864175438881,-0.1698904037475586
1729114721276301600,11.532301513671875,9.891630172729492,-0.0690927505493164,-0.16749759018421173
1729114721314236200,11.570236083984375,9.905986785888672,-0.0690927505493164,-0.16749759018421173
1729114721352170500,11.60817041015625,9.882058143615723,-0.05234299600124359,-0.1746760457754135
1729114721390104800,11.646104736328125,9.901201248168945,-0.05473581701517105,-0.1818545162677765
1729114721428039200,11.6840390625,9.903594017028809,-0.06669992953538895,-0.16510476171970367
1729114721465973500,11.721973388671875,9.882058143615723,-0.05712864175438881,-0.17706887423992157
1729114721503907800,11.759907958984375,9.891630172729492,-0.05712864175438881,-0.16749759018421173
1729114721541842200,11.79784228515625,9.88684368133545,-0.06430710852146149,-0.16271193325519562
1729114721579776500,11.835776611328125,9.913165092468262,-0.06669992953538895,-0.16510476171970367
1729114721617710800,11.8737109375,9.877272605895996,-0.07148557901382446,-0.16749759018421173
1729114721655645200,11.911645263671875,9.905986785888672,-0.05952146276831627,-0.17946170270442963
1729114721693579800,11.949579833984375,9.87966537475586,-0.0690927505493164,-0.18424734473228455
1729114721731513900,11.987513916015626,9.896415710449219,-0.07627122104167938,-0.17228323221206665
1729114721769448400,12.025448486328125,9.894022941589355,-0.06669992953538895,-0.1818545162677765
1729114721807382800,12.0633828125,9.896415710449219,-0.0690927505493164,-0.16271193325519562
1729114721845317000,12.101317138671876,9.894022941589355,-0.06191428750753403,-0.1746760457754135
1729114721883251500,12.13925146484375,9.894022941589355,-0.05952146276831627,-0.1818545162677765
1729114721921185800,12.177185791015624,9.896415710449219,-0.06669992953538895,-0.16271193325519562
1729114721959120100,12.2151201171875,9.894022941589355,-0.0690927505493164,-0.1746760457754135
1729114721997054500,12.253054443359375,9.898808479309082,-0.06430710852146149,-0.17228323221206665
1729114722034988800,12.29098876953125,9.896415710449219,-0.06669992953538895,-0.17706887423992157
1729114722072923100,12.328923095703125,9.898808479309082,-0.05473581701517105,-0.15553347766399384
1729114722110857700,12.366857666015624,9.882058143615723,-0.0690927505493164,-0.17706887423992157
1729114722148792000,12.4047919921875,9.908379554748535,-0.06191428750753403,-0.17228323221206665
1729114722186726400,12.442726318359375,9.891630172729492,-0.06430710852146149,-0.1746760457754135
1729114722224660700,12.48066064453125,9.905986785888672,-0.07148557901382446,-0.1698904037475586
1729114722262595000,12.518594970703125,9.896415710449219,-0.07387840002775192,-0.1866401731967926
1729114722300529400,12.556529296875,9.891630172729492,-0.05952146276831627,-0.16271193325519562
1729114722338463700,12.594463623046876,9.898808479309082,-0.0690927505493164,-0.17228323221206665
1729114722376398000,12.632398193359375,9.889236450195312,-0.06669992953538895,-0.17228323221206665
1729114722414332700,12.670332763671874,9.898808479309082,-0.06191428750753403,-0.16031911969184875
1729114722452267000,12.70826708984375,9.884450912475586,-0.06669992953538895,-0.17706887423992157
1729114722490201300,12.746201416015625,9.917950630187988,-0.06669992953538895,-0.17706887423992157
1729114722528135700,12.7841357421875,9.891630172729492,-0.07387840002775192,-0.18903298676013947
1729114722566070000,12.822070068359375,9.894022941589355,-0.06430710852146149,-0.16749759018421173
1729114722604004400,12.86000439453125,9.901201248168945,-0.06669992953538895,-0.17706887423992157
1729114722641938700,12.897938720703126,9.898808479309082,-0.06430710852146149,-0.1866401731967926
1729114722679873000,12.935873046875,9.882058143615723,-0.05952146276831627,-0.16271193325519562
1729114722717807600,12.9738076171875,9.88684368133545,-0.05473581701517105,-0.1698904037475586
1729114722755742000,13.011741943359375,9.894022941589355,-0.07387840002775192,-0.17946170270442963
1729114722793676300,13.04967626953125,9.901201248168945,-0.07148557901382446,-0.1698904037475586
1729114722831610600,13.087610595703126,9.898808479309082,-0.0690927505493164,-0.17228323221206665
1729114722869545000,13.125544921875,9.891630172729492,-0.06191428750753403,-0.17706887423992157
1729114722907479300,13.163479248046874,9.903594017028809,-0.05473581701517105,-0.1698904037475586
1729114722945413600,13.20141357421875,9.896415710449219,-0.06191428750753403,-0.1579262912273407
1729114722983348000,13.239347900390625,9.891630172729492,-0.06191428750753403,-0.17706887423992157
1729114723021282600,13.277282470703126,9.901201248168945,-0.06191428750753403,-0.16271193325519562
1729114723059217000,13.315216796875,9.882058143615723,-0.0690927505493164,-0.18424734473228455
1729114723097151200,13.353151123046874,9.901201248168945,-0.05952146276831627,-0.16031911969184875
1729114723135085600,13.39108544921875,9.891630172729492,-0.06669992953538895,-0.17228323221206665
1729114723173020000,13.42902001953125,9.831809043884277,0.1055833026766777,-0.17946170270442963
1729114723210954200,13.466954345703124,9.915557861328125,0.4097708761692047,-0.14835500717163086
1729114723248888800,13.504888916015625,9.853344917297363,0.4408775866031647,-0.08614161610603333
1729114723286823200,13.5428232421875,9.803094863891602,0.38344982266426086,-0.2392822653055191
1729114723324757500,13.580757568359376,9.908379554748535,0.7543373107910156,-0.11485548317432404
1729114723362691800,13.61869189453125,9.939486503601074,1.0513464212417603,-0.11964113265275955
1729114723400626200,13.656626220703124,9.86530876159668,1.194915771484375,-0.040677983313798904
1729114723438560500,13.694560546875,10.020842552185059,1.20687997341156,-0.20817556977272034
1729114723476494800,13.732494873046875,9.74088191986084,1.3217353820800781,-0.0526420995593071
1729114723514429400,13.770429443359374,10.109675407409668,0.9221340417861938,0.09810572862625122
1729114723552363800,13.80836376953125,9.8509521484375,0.9197412133216858,-0.20817556977272034
1729114723590298000,13.846298095703125,9.889236450195312,1.103988528251648,0.04546362906694412
1729114723628232400,13.884232421875,9.559027671813965,1.4270195960998535,0.004785645287483931
1729114723666166800,13.922166748046875,8.64197826385498,1.3193426132202148,-0.1986042857170105
1729114723704101000,13.96010107421875,8.819046974182129,0.6370890140533447,0.1414756327867508
1729114723742035700,13.99803564453125,10.013663291931152,1.0010972023010254,0.1941177397966385
1729114723779970000,14.035969970703125,10.533205032348633,0.6346961855888367,-0.13878370821475983
1729114723817904400,14.073904296875,10.210174560546875,0.3403790295124054,-0.3565305769443512
1729114723855838700,14.111838623046875,10.561919212341309,0.8787640929222107,-0.02871387079358101
1729114723893773000,14.14977294921875,8.895617485046387,1.1662019491195679,-0.13639089465141296
1729114723931707400,14.187707275390625,10.375279426574707,1.084846019744873,0.5171487927436829
1729114723969641700,14.225641845703125,9.061020851135254,1.4437693357467651,-0.1339980661869049
1729114724007576300,14.263576416015624,10.408778190612793,0.9005986452102661,-0.3756731450557709
1729114724045510700,14.3015107421875,9.144769668579102,1.0657033920288086,-0.2967100143432617
1729114724083445000,14.339445068359375,9.149555206298828,1.6091731786727905,-0.17706887423992157
1729114724121379300,14.37737939453125,10.310672760009766,1.0561320781707764,0.22522443532943726
1729114724159313700,14.415313720703125,8.97248649597168,2.0258233547210693,-0.9981061220169067
1729114724197248000,14.453248046875,9.604491233825684,1.6307085752487183,0.3568296730518341
1729114724235182600,14.4911826171875,12.089437484741211,0.6059823632240295,0.23718854784965515
1729114724273117000,14.529116943359375,10.806285858154297,0.4576273262500763,-0.22971096634864807
1729114724311051300,14.56705126953125,11.21336555480957,0.21326032280921936,-0.04546362906694412
1729114724348985600,14.604985595703125,9.539884567260742,-0.03080759197473526,0.4692923426628113
1729114724386920000,14.642919921875,14.26570987701416,-0.16480566561222076,-0.13160525262355804
1729114724424854300,14.680854248046876,7.265506744384766,0.14865410327911377,-0.8234301209449768
1729114724462788900,14.718788818359375,8.737690925598145,0.06969095766544342,-0.9119645357131958
1729114724500723200,14.75672314453125,8.366803169250488,-1.1057831048965454,-0.8497511148452759
1729114724538657500,14.794657470703125,10.93310546875,-0.2727817893028259,0.4980062246322632
1729114724576592000,14.832591796875,5.793023586273193,-0.5958128571510315,-1.3597214221954346
1729114724614526200,14.870526123046876,11.433505058288574,-1.7665013074874878,-1.6064813137054443
1729114724652460800,14.908460693359375,8.297112464904785,-0.2991028428077698,-1.1012966632843018
1729114724690395100,14.94639501953125,9.508777618408203,-1.038784146308899,0.4166502356529236
1729114724728329500,14.98432958984375,11.675179481506348,-0.9143573641777039,-1.1826525926589966
1729114724766263800,15.022263916015625,8.565407752990723,-0.045164529234170914,-2.0156540870666504
1729114724804198100,15.0601982421875,11.634501457214355,-0.5096712112426758,-1.1826525926589966
1729114724842132700,15.0981328125,11.172687530517578,-0.8210372924804688,-0.9143573641777039
1729114724880067000,15.136067138671875,9.171091079711914,-0.8330013751983643,-2.310270309448242
1729114724918001400,15.17400146484375,11.06471061706543,-1.4626128673553467,-1.7596219778060913
1729114724955935700,15.211935791015625,8.618049621582031,-0.9502496719360352,-1.414756417274475
1729114724993870000,15.2498701171875,10.610074996948242,-0.641276478767395,-1.3310075998306274
1729114725031804700,15.2878046875,10.006484985351562,0.5796613097190857,-1.3022937774658203
1729114725069739000,15.325739013671875,9.025128364562988,0.8333004713058472,-1.7620147466659546
1729114725107673300,15.36367333984375,10.590633392333984,1.111167073249817,-0.6152545213699341
1729114725145607700,15.401607666015625,9.144769668579102,0.7782655358314514,-1.872084617614746
1729114725183542000,15.4395419921875,11.598609924316406,0.007477570790797472,-0.4331009089946747
1729114725221476400,15.477476318359376,8.64197826385498,-0.1217348501086235,-1.536790370941162
1729114725259411000,15.515410888671875,10.734501838684082,-0.07866404205560684,-0.7779664397239685
1729114725297345300,15.55334521484375,9.48484992980957,-0.09541380405426025,-1.532004714012146
1729114725335279600,15.591279541015625,9.535099029541016,0.3595215976238251,-0.32303106784820557
1729114725373214000,15.6292138671875,8.893224716186523,1.2403794527053833,0.4980062246322632
1729114725411148300,15.667148193359376,8.713762283325195,3.009572744369507,-0.26560330390930176
1729114725449083000,15.705082763671875,1.6824533939361572,3.10528564453125,-0.6056832075119019
1729114725487017200,15.743017333984374,11.316256523132324,2.346461772918701,1.4988043308258057
1729114725524951600,15.78095166015625,5.726024627685547,1.6977076530456543,1.4940186738967896
1729114725562886000,15.818885986328125,15.335899353027344,-0.6317051649093628,0.5985047817230225
1729114725600820200,15.8568203125,10.590633392333984,0.5078766345977783,0.34247273206710815
1729114725638754800,15.8947548828125,7.193423271179199,0.3690928816795349,-0.02632104977965355
1729114725676689200,15.932689208984375,9.460622787475586,0.2108674943447113,0.6777670383453369
1729114725714623500,15.97062353515625,8.862117767333984,0.6777670383453369,0.9074779748916626
1729114725752557800,16.008557861328125,9.685847282409668,-1.0148558616638184,0.16061821579933167
1729114725790492400,16.046492431640626,10.2747802734375,0.029012974351644516,1.0199406147003174
1729114725828426800,16.0844267578125,7.789535045623779,-0.0690927505493164,1.8628123998641968
1729114725866361000,16.122361083984377,14.935998916625977,-0.7441678643226624,2.0518453121185303
1729114725904295400,16.16029541015625,6.726822853088379,0.529412031173706,0.23240290582180023
1729114725942229800,16.198229736328123,8.821439743041992,-0.28953152894973755,2.1020946502685547
1729114725980164400,16.236164306640624,14.979069709777832,-0.7010970115661621,1.7356936931610107
1729114726018098700,16.2740986328125,6.748358249664307,0.5676971673965454,1.4820544719696045
1729114726056033000,16.312032958984375,8.546265602111816,0.10797612369060516,1.7883358001708984
1729114726093967400,16.34996728515625,10.435099601745605,-0.8808578252792358,1.810170292854309
1729114726131902000,16.38790185546875,10.52363395690918,0.08883354067802429,2.0135602951049805
1729114726169836300,16.425836181640626,8.017151832580566,-0.9430712461471558,1.261914849281311
1729114726207770600,16.4637705078125,13.516456604003906,-0.4905286431312561,2.707777976989746
1729114726245705000,16.501705078125,5.529513835906982,-0.20069800317287445,1.1180464029312134
1729114726283639300,16.539639404296874,12.64726448059082,-0.6101697683334351,2.5283162593841553
1729114726321574000,16.577573974609376,11.507681846618652,-0.09780662506818771,1.8604196310043335
1729114726359508200,16.61550830078125,4.289433479309082,0.4983053207397461,1.7404793500900269
1729114726397442600,16.653442626953126,8.297112464904785,-0.6149554252624512,1.55623197555542
1729114726435377000,16.691376953125,13.803595542907715,-0.7561319470405579,2.324627161026001
1729114726473311500,16.7293115234375,7.061817646026611,1.2834502458572388,2.307877540588379
1729114726511245800,16.767245849609374,5.826523303985596,-0.5383850932121277,2.5953152179718018
1729114726549180200,16.80518017578125,11.488539695739746,-0.3445664644241333,1.7069798707962036
1729114726587114500,16.843114501953124,7.638787269592285,0.5365904569625854,1.3025928735733032
1729114726625049000,16.881049072265625,11.87169075012207,-1.220638632774353,1.7261223793029785
1729114726662983400,16.9189833984375,9.724132537841797,0.4863412082195282,1.2427722215652466
1729114726700917800,16.956917724609376,4.026223182678223,0.5509474277496338,1.0941181182861328
1729114726738852000,16.99485205078125,12.896416664123535,-0.672383189201355,1.5538392066955566
1729114726776786700,17.03278662109375,12.78604793548584,0.6634100675582886,1.6663018465042114
1729114726814721000,17.070720947265624,6.111268997192383,0.5102694034576416,0.41904306411743164
1729114726852655400,17.1086552734375,10.94028377532959,0.009870393201708794,0.9744769930839539
1729114726890589700,17.146589599609374,10.423135757446289,-0.8665009140968323,0.40229329466819763
1729114726928524000,17.18452392578125,8.000402450561523,0.46719861030578613,1.2547364234924316
1729114726966458600,17.222458740234377,9.317052841186523,-0.4666004180908203,-2.769991397857666
1729114727004393000,17.26039306640625,11.131710052490234,-0.6867401003837585,-1.5825530290603638
1729114727042327300,17.298327392578123,10.947463035583496,0.08883354067802429,0.802193820476532
1729114727080261600,17.33626171875,4.8233323097229,0.5676971673965454,0.016749758273363113
1729114727118196200,17.3741962890625,10.114460945129395,-0.7875377535820007,-0.21774685382843018
1729114727156130600,17.412130615234375,10.205389022827148,-0.14087744057178497,0.12711870670318604
1729114727194065000,17.45006494140625,10.557133674621582,0.27308088541030884,-0.1986042857170105
1729114727231999200,17.487999267578125,7.887939929962158,0.07447660714387894,-0.8617152571678162
1729114727269933800,17.525933837890626,12.230613708496094,-0.46899324655532837,-0.8952147960662842
1729114727307868200,17.5638681640625,9.142376899719238,0.529412031173706,0.0933200865983963
1729114727345802500,17.601802490234373,10.94028377532959,0.5724828243255615,-0.6343970894813538
1729114727383736800,17.63973681640625,10.269994735717773,0.02183450572192669,-1.3908281326293945
1729114727421671400,17.67767138671875,10.38485050201416,-0.8808578252792358,-0.9071788787841797
1729114727459605800,17.715605712890625,11.06471061706543,0.33050861954689026,-1.5439687967300415
1729114727497540000,17.7535400390625,6.154638767242432,0.5485545992851257,-1.922333836555481
1729114727535474400,17.791474365234375,14.198710441589355,-1.7042878866195679,-0.9334999322891235
1729114727573409000,17.829408935546876,10.296316146850586,-0.6101697683334351,-0.9095717072486877
1729114727611343400,17.86734326171875,8.091329574584961,0.1462612897157669,-1.350150227546692
1729114727649277700,17.905277587890627,9.06580638885498,0.19651055335998535,-1.3980066776275635
1729114727687212000,17.9432119140625,11.560324668884277,-0.5599204897880554,-1.3214362859725952
1729114727725146600,17.981146728515625,9.192625999450684,0.24197418987751007,-1.9414764642715454
1729114727763081000,18.0190810546875,10.806285858154297,-0.004486542660742998,-0.6822535395622253
1729114727801015300,18.057015380859376,8.644371032714844,0.16779668629169464,-1.6040884256362915
1729114727838950000,18.094949951171873,10.236495018005371,-0.7537391185760498,-1.5056836605072021
1729114727876884200,18.13288427734375,11.292327880859375,-1.4171491861343384,-2.214557409286499
1729114727914818600,18.170818603515624,8.51037311553955,-0.0810568705201149,-0.8162516355514526
1729114727952753000,18.2087529296875,10.863714218139648,0.4217349886894226,-1.9055840969085693
1729114727990687500,18.2466875,8.170292854309082,-0.1624128371477127,-2.39401912689209
1729114728028621800,18.284621826171875,11.280364036560059,-0.8138588070869446,-1.5777673721313477
1729114728066556200,18.32255615234375,9.072985649108887,-0.5335994362831116,-1.7835501432418823
1729114728104490500,18.360490478515626,9.192625999450684,0.16779668629169464,-0.8688937425613403
1729114728142425000,18.398425048828123,9.2859468460083,0.5198407173156738,-1.7476578950881958
1729114728180359400,18.436359375,9.309874534606934,0.9245268702507019,-1.5849459171295166
1729114728218293800,18.474293701171874,11.251649856567383,0.25633111596107483,-1.2352946996688843
1729114728256228400,18.512228271484375,8.167900085449219,-0.5575276613235474,-1.6639090776443481
1729114728294162700,18.55016259765625,13.20269775390625,-0.8641080856323242,0.5267201066017151
1729114728332097000,18.588096923828125,5.613562107086182,0.32572299242019653,-0.17946170270442963
1729114728370031400,18.62603125,11.136495590209961,-0.638883650302887,-0.2679961323738098
1729114728407966000,18.663966064453124,13.774881362915039,-0.9047860503196716,-0.01196411345154047
1729114728445900300,18.701900390625,7.502396106719971,0.5437689423561096,0.17736798524856567
1729114728483834600,18.739834716796874,7.411468982696533,-0.6915257573127747,-0.3038884699344635
1729114728521769000,18.77776904296875,12.747762680053711,-0.854536771774292,0.07657032459974289
1729114728559703600,18.81570361328125,5.553442478179932,-0.17198412120342255,-0.91914302110672
1729114728597638000,18.853637939453126,8.218149185180664,0.6921239495277405,-0.5338985323905945
1729114728635572200,18.891572265625,14.58903980255127,-1.287637710571289,-0.4956133961677551
1729114728673506800,18.9295068359375,10.91874885559082,0.42412781715393066,-0.3565305769443512
1729114728711441200,18.967441162109374,8.854939460754395,0.357128769159317,-1.592124342918396
1729114728749375500,19.00537548828125,11.167901039123535,-1.0579266548156738,-0.7085745930671692
1729114728787309800,19.043309814453124,10.305887222290039,-0.275174617767334,-0.31345975399017334
1729114728825244400,19.081244384765625,8.486444473266602,-0.5431707501411438,0.04546362906694412
1729114728863178800,19.1191787109375,13.466207504272461,-1.2326027154922485,-1.067797064781189
1729114728901113000,19.157113037109376,7.011568546295166,-0.9454640746116638,-1.4386845827102661
1729114728939047700,19.195047607421873,11.603395462036133,-2.2214367389678955,-1.1252248287200928
1729114728976982000,19.23298193359375,8.984451293945312,-1.184746265411377,-0.2512463629245758
1729114729014916400,19.270916259765624,10.29870891571045,-2.037189483642578,-0.4307080805301666
1729114729052850700,19.3088505859375,11.589037895202637,-2.8151557445526123,-0.4139583110809326
1729114729090785300,19.346785400390626,7.15513801574707,-1.8813568353652954,-0.37806597352027893
1729114729128719600,19.3847197265625,14.13410472869873,-2.803191661834717,-0.41156548261642456
1729114729166654000,19.422654052734377,8.989236831665039,-1.9151554107666016,-2.0563318729400635
1729114729204588300,19.46058837890625,10.622038841247559,-2.1017956733703613,-0.8832506537437439
1729114729242523000,19.49852294921875,10.466206550598145,-2.1185452938079834,0.9601200819015503
1729114729280457200,19.536457275390624,10.066604614257812,-2.281257390975952,-0.2727817893028259
1729114729318391800,19.574391845703126,9.736096382141113,-2.537588357925415,-1.0606186389923096
1729114729356326100,19.612326171875,9.752845764160156,-2.2908284664154053,-0.14835500717163086
1729114729394260500,19.650260498046876,9.743274688720703,-2.1664018630981445,-0.46450668573379517
1729114729432194800,19.68819482421875,9.884450912475586,-2.020439624786377,-0.6774678826332092
1729114729470129400,19.72612939453125,9.905986785888672,-1.685145378112793,0.10767702013254166
1729114729508063700,19.764063720703124,9.87248706817627,-1.3860424757003784,-0.22013968229293823
1729114729545998000,19.801998046875,9.908379554748535,-1.1871391534805298,-0.7205387353897095
1729114729583932400,19.839932373046874,9.994521141052246,-0.885643482208252,-0.17228323221206665
1729114729621867000,19.877866943359376,9.781559944152832,-0.5455635786056519,-0.17706887423992157
1729114729659801300,19.91580126953125,9.915557861328125,-0.2847459018230438,-0.5458626747131348
1729114729697735700,19.953735595703126,9.84138011932373,-0.026021946221590042,-0.4378865361213684
1729114729735670300,19.991670166015624,9.929914474487305,0.11276176571846008,-0.23688943684101105
1729114729773604600,20.0296044921875,9.87248706817627,0.12711870670318604,-0.1579262912273407
1729114729811539000,20.0675390625,9.891630172729492,0.17736798524856567,-0.15553347766399384
1729114729849473500,20.1054736328125,9.870094299316406,0.13668999075889587,-0.35892340540885925
1729114729887407900,20.143407958984376,9.913165092468262,0.00029910283046774566,-0.3445664644241333
1729114729925342200,20.18134228515625,9.870094299316406,-0.0690927505493164,-0.2871387302875519
1729114729963276800,20.21927685546875,9.915557861328125,-0.17198412120342255,-0.33738797903060913
1729114730001211100,20.257211181640624,9.87966537475586,-0.22223339974880219,-0.3278166949748993
1729114730039145500,20.2951455078125,9.913165092468262,-0.2727817893028259,-0.31824541091918945
1729114730077079800,20.333079833984375,9.884450912475586,-0.2871387302875519,-0.32303106784820557
1729114730115014400,20.371014404296876,9.903594017028809,-0.275174617767334,-0.3158525824546814
1729114730152948700,20.40894873046875,9.882058143615723,-0.24646073579788208,-0.30149564146995544
1729114730190883000,20.446883056640626,9.87966537475586,-0.2102692872285843,-0.31106695532798767
1729114730228817700,20.484817626953124,9.898808479309082,-0.16959130764007568,-0.3038884699344635
1729114730266752000,20.522751953125,9.894022941589355,-0.16002000868320465,-0.31824541091918945
1729114730304686300,20.560686279296874,9.896415710449219,-0.1863410621881485,-0.33020952343940735
1729114730342621000,20.598620849609375,9.896415710449219,-0.17198412120342255,-0.3158525824546814
1729114730380555300,20.63655517578125,9.903594017028809,-0.19351953268051147,-0.33499518036842346
1729114730418489600,20.674489501953126,9.903594017028809,-0.18873389065265656,-0.31345975399017334
1729114730456424200,20.712424072265627,9.882058143615723,-0.19591236114501953,-0.31345975399017334
1729114730494358500,20.750358642578124,9.894022941589355,-0.20069800317287445,-0.32542386651039124
1729114730532292900,20.78829296875,9.898808479309082,-0.20069800317287445,-0.3038884699344635
1729114730570227500,20.8262275390625,9.882058143615723,-0.19351953268051147,-0.3086741268634796
1729114730608161800,20.864161865234376,9.894022941589355,-0.19112670421600342,-0.30149564146995544
1729114730646096100,20.90209619140625,9.898808479309082,-0.18873389065265656,-0.3086741268634796
1729114730684030700,20.94003076171875,9.896415710449219,-0.19591236114501953,-0.31824541091918945
1729114730721965000,20.977965087890624,9.889236450195312,-0.17916259169578552,-0.3086741268634796
1729114730759899400,21.0158994140625,9.88684368133545,-0.19591236114501953,-0.31106695532798767
1729114730797834000,21.053833984375,9.870094299316406,-0.18873389065265656,-0.3852444589138031
1729114730835768300,21.091768310546875,9.891630172729492,-0.17198412120342255,-0.4043870270252228
1729114730873702700,21.12970263671875,9.870094299316406,-0.16480566561222076,-0.3732803463935852
1729114730911637000,21.167636962890626,9.84138011932373,-0.1983051747083664,-0.31824541091918945
1729114730949571600,21.205571533203123,9.968199729919434,-0.24406790733337402,-0.5171487927436829
1729114730987506000,21.243505859375,9.795916557312012,-0.2150549292564392,-0.9454640746116638
1729114731025440500,21.2814404296875,9.915557861328125,-0.10737791657447815,-1.0773683786392212
1729114731063374800,21.319374755859375,9.75523853302002,-0.10259227454662323,-1.5080764293670654
1729114731101309200,21.35730908203125,10.097711563110352,-0.2847459018230438,-1.6040884256362915
1729114731139243500,21.395243408203125,9.472586631774902,-0.21266211569309235,-1.048654556274414
1729114731177178000,21.43317822265625,10.05703353881836,-0.5479564070701599,-0.7085745930671692
1729114731215112400,21.471112548828124,9.913165092468262,-0.6460621356964111,-0.9095717072486877
1729114731253046800,21.509046875,10.06421184539795,-0.9167501926422119,-0.9957132935523987
1729114731290981400,21.5469814453125,9.855737686157227,-0.9071788787841797,-0.8688937425613403
1729114731328915700,21.584915771484376,10.0040922164917,-0.8617152571678162,-0.5745765566825867
1729114731366850000,21.62285009765625,9.99691390991211,-0.9478568434715271,-0.08853443711996078
1729114731404784600,21.66078466796875,9.508777618408203,-1.09381902217865,-0.9885348677635193
1729114731442719000,21.698718994140624,10.202995300292969,-0.672383189201355,-0.04546362906694412
1729114731480653300,21.7366533203125,10.262816429138184,-0.5240281820297241,0.7495517134666443
1729114731518588000,21.774587890625,9.683454513549805,-0.9598209857940674,-0.7803592681884766
1729114731556522200,21.812522216796875,9.970592498779297,-0.797109067440033,-0.6894320249557495
1729114731594456600,21.85045654296875,9.83420181274414,-0.6005984544754028,-0.15074782073497772
1729114731632391200,21.88839111328125,10.037591934204102,-0.607776939868927,0.0526420995593071
1729114731670325500,21.926325439453127,9.860523223876953,-0.672383189201355,-0.524327278137207
1729114731708259800,21.964259765625,10.035199165344238,-0.6843472719192505,-0.521934449672699
1729114731746194400,22.0021943359375,9.807881355285645,-0.6747759580612183,-0.23449662327766418
1729114731784128800,22.040128662109375,9.855737686157227,-0.48574298620224,-0.2727817893028259
1729114731822063000,22.07806298828125,9.250054359436035,-0.31345975399017334,-0.6391827464103699
1729114731859997700,22.115997802734373,10.437492370605469,-0.550349235534668,0.2754737138748169
1729114731897932000,22.15393212890625,9.549455642700195,-0.45942193269729614,-0.15314064919948578
1729114731935866400,22.191866455078124,10.1216402053833,-0.5072783827781677,-0.39960137009620667
1729114731973801000,22.229801025390625,9.750452995300293,-0.5264210104942322,-0.08374879509210587
1729114732011735300,22.2677353515625,9.99691390991211,-0.46899324655532837,-0.3517449200153351
1729114732049669600,22.305669677734375,9.700203895568848,-0.3326023519039154,-0.12921242415905
1729114732087604200,22.343604248046876,9.96580696105957,-0.275174617767334,-0.06699903309345245
1729114732125538600,22.38153857421875,9.786345481872559,-0.24885354936122894,0.1941177397966385
1729114732163473000,22.419472900390623,9.946664810180664,-0.20548364520072937,0.3520440459251404
1729114732201407500,22.457407470703124,9.736096382141113,-0.07866404205560684,1.5227324962615967
1729114732239341800,22.495341796875,9.719346046447754,0.0649053156375885,2.128415822982788
1729114732277276200,22.533276123046875,10.013663291931152,0.19172491133213043,1.659123420715332
1729114732315210800,22.571210693359376,9.702596664428711,0.1701895147562027,0.7304090857505798
1729114732353145000,22.60914501953125,10.38485050201416,-0.07387840002775192,-0.8162516355514526
1729114732391079400,22.647079345703126,10.365707397460938,-0.1576271951198578,-0.5147559642791748
1729114732429014000,22.685013916015624,9.97298526763916,0.08883354067802429,0.11006984114646912
1729114732466948400,22.7229482421875,9.829416275024414,0.055334024131298065,-0.17706887423992157
1729114732504883000,22.760883056640626,9.877272605895996,0.07447660714387894,-0.3732803463935852
1729114732542817300,22.7988173828125,9.87966537475586,0.2515454888343811,-0.05024927482008934
1729114732580751600,22.836751708984377,9.913165092468262,0.2347957193851471,-0.17228323221206665
1729114732618686200,22.874686279296874,9.898808479309082,0.21804596483707428,-0.19142581522464752
1729114732656620500,22.91262060546875,9.903594017028809,0.2108674943447113,-0.13639089465141296
1729114732694555000,22.950554931640625,9.891630172729492,0.16779668629169464,-0.1986042857170105
1729114732732489500,22.988489501953126,9.891630172729492,0.11276176571846008,-0.16271193325519562
1729114732770423800,23.026423828125,9.884450912475586,0.10079765319824219,-0.18424734473228455
1729114732808358100,23.064358154296876,9.894022941589355,0.09601201117038727,-0.17228323221206665
1729114732846292700,23.102292724609374,9.874879837036133,0.12711870670318604,-0.1746760457754135
1729114732884227000,23.14022705078125,9.898808479309082,0.1414756327867508,-0.16749759018421173
1729114732922161400,23.178161376953124,9.896415710449219,0.14865410327911377,-0.1746760457754135
1729114732960096000,23.216095947265625,9.896415710449219,0.13190434873104095,-0.1746760457754135
1729114732998030300,23.2540302734375,9.896415710449219,0.12472587823867798,-0.1746760457754135
1729114733035964700,23.291964599609376,9.903594017028809,0.1175474151968956,-0.1698904037475586
1729114733073899300,23.329899169921877,9.87966537475586,0.1175474151968956,-0.17946170270442963
1729114733111833600,23.36783349609375,9.894022941589355,0.13668999075889587,-0.16271193325519562
1729114733149768200,23.405768310546875,9.884450912475586,0.13908281922340393,-0.1698904037475586
1729114733187702500,23.44370263671875,9.894022941589355,0.13668999075889587,-0.16271193325519562
1729114733225636900,23.481636962890626,9.87966537475586,0.1414756327867508,-0.17706887423992157
1729114733263571200,23.5195712890625,9.908379554748535,0.12711870670318604,-0.16271193325519562
1729114733301505800,23.557505859375,9.901201248168945,0.12472587823867798,-0.1818545162677765
1729114733339440000,23.595440185546874,9.898808479309082,0.13908281922340393,-0.15074782073497772
1729114733377374700,23.633374755859375,9.891630172729492,0.13668999075889587,-0.16510476171970367
1729114733415309000,23.67130908203125,9.910772323608398,0.11994023621082306,-0.17228323221206665
1729114733453243400,23.709243408203125,9.949057579040527,0.1821536272764206,-0.27038896083831787
1729114733491178000,23.747177978515627,9.898808479309082,0.5916253924369812,-0.20578274130821228
1729114733529112300,23.7851123046875,9.927521705627441,1.0106685161590576,-0.13878370821475983
1729114733567047000,23.823046875,9.815059661865234,1.568495273590088,-0.12921242415905
1729114733604981200,23.860981201171874,9.917950630187988,1.2379865646362305,0.06939185410737991
1729114733642915600,23.89891552734375,9.96580696105957,1.2427722215652466,-0.26560330390930176
1729114733680850000,23.936849853515625,10.1216402053833,1.3863415718078613,-0.3158525824546814
1729114733718784500,23.974784423828126,9.590133666992188,1.8604196310043335,-0.13160525262355804
1729114733756718800,24.01271875,10.545169830322266,1.6115660667419434,-0.1339980661869049
1729114733794653400,24.0506533203125,10.016056060791016,1.9417755603790283,-0.28235307335853577
1729114733832587800,24.088587890625,10.418350219726562,1.8388842344284058,-0.22013968229293823
1729114733870522000,24.126522216796875,10.023235321044922,2.4924237728118896,0.385543555021286
1729114733908456700,24.164456787109376,5.97727108001709,2.617149829864502,-0.17228323221206665
1729114733946391000,24.20239111328125,5.376373291015625,2.2292134761810303,-0.36610186100006104
1729114733984325400,24.240325439453127,11.218151092529297,0.7639086246490479,-0.4812564551830292
1729114734022260000,24.278260009765624,6.865606307983398,1.908276081085205,-0.05024927482008934
1729114734060194300,24.3161943359375,8.677870750427246,1.5158531665802002,0.1295115202665329
1729114734098129000,24.35412890625,10.116853713989258,1.108774185180664,-0.09810572862625122
1729114734136063200,24.392063232421876,9.039485931396484,1.1255239248275757,-0.5123631358146667
1729114734173997600,24.42999755859375,11.876476287841797,0.7567301392555237,0.062213387340307236
1729114734211932200,24.46793212890625,10.030413627624512,0.09840483218431473,-0.1052841991186142
1729114734249866500,24.505866455078124,9.915557861328125,0.6897311210632324,0.02871387079358101
1729114734287800800,24.54380078125,9.355338096618652,1.1590235233306885,0
1729114734325735400,24.5817353515625,11.024032592773438,0.47916272282600403,-0.3684946894645691
1729114734363669800,24.619669677734375,7.3037919998168945,0.09840483218431473,-0.7109674215316772
1729114734401604000,24.65760400390625,9.350552558898926,-0.5599204897880554,-0.40677985548973083
1729114734439538700,24.69553857421875,12.958630561828613,-0.22971096634864807,0.08374879509210587
1729114734477473000,24.73347314453125,6.57338285446167,0.5940182209014893,-0.41156548261642456
1729114734515407400,24.771407470703124,11.416754722595215,-0.6939185857772827,-0.38763725757598877
1729114734553342000,24.809342041015626,5.251946449279785,0.6993024349212646,-0.38285163044929504
1729114734591276300,24.8472763671875,7.679465293884277,0.16061821579933167,-0.2105683982372284
1729114734629210600,24.885210693359376,15.256936073303223,-0.7752745151519775,0.735194742679596
1729114734667145200,24.923145263671874,8.699405670166016,0.33798620104789734,-0.004785645287483931
1729114734705079600,24.96107958984375,10.198209762573242,0.37148571014404297,0.09092725813388824
1729114734743014100,24.99901416015625,9.64038372039795,0.5198407173156738,-0.4501497745513916
1729114734780948500,25.036948486328125,8.110472679138184,0.4983053207397461,-1.1156535148620605
1729114734818882800,25.0748828125,12.453445434570312,-0.5144568681716919,-0.10289137065410614
1729114734856817400,25.1128173828125,6.2312092781066895,0.582054078578949,-0.5721837282180786
1729114734894751700,25.150751708984377,8.625227928161621,-0.6173482537269592,-0.3924229145050049
1729114734932686300,25.188686279296874,11.007283210754395,-0.1983051747083664,-0.854536771774292
1729114734970620700,25.22662060546875,4.322933197021484,0.27786654233932495,-1.4602199792861938
1729114735008555000,25.264554931640625,11.699108123779297,-1.3307085037231445,-0.5769693851470947
1729114735046489600,25.302489501953126,10.13599681854248,-1.0579266548156738,-1.2687941789627075
1729114735084424000,25.340423828125,7.859225749969482,-1.2086745500564575,-1.8577276468276978
1729114735122358300,25.378358154296876,10.6025972366333,-1.251745343208313,-2.2504496574401855
1729114735160292900,25.41629296875,9.245268821716309,-0.5407779216766357,-1.5801602602005005
1729114735198227200,25.454227294921875,9.803094863891602,0.23958136141300201,-1.067797064781189
1729114735236161500,25.49216162109375,10.689038276672363,0.0768694281578064,-1.0271191596984863
1729114735274096000,25.53009619140625,9.961021423339844,-0.698704183101654,-1.1108678579330444
1729114735312030500,25.568030517578126,10.514062881469727,-1.3549357652664185,-1.0773683786392212
1729114735349964800,25.60596484375,9.266803741455078,-0.885643482208252,-1.683051586151123
1729114735387899400,25.6438994140625,10.140782356262207,-0.14327025413513184,-1.0941181182861328
1729114735425833700,25.681833740234374,10.032806396484375,0.4983053207397461,-1.532004714012146
1729114735463768300,25.719768310546876,8.754440307617188,0.6394818425178528,-2.0324037075042725
1729114735501702700,25.75770263671875,10.973783493041992,-0.5934200286865234,-0.9598209857940674
1729114735539637000,25.795636962890626,9.041878700256348,-0.6652047038078308,-0.3684946894645691
1729114735577571600,25.833571533203123,10.124032974243164,-0.08823533356189728,0.16540385782718658
1729114735615506000,25.871505859375,10.114460945129395,1.6307085752487183,0.49322056770324707
1729114735653440500,25.9094404296875,7.167101860046387,2.5836503505706787,0.46450668573379517
1729114735691374800,25.947374755859375,10.892427444458008,2.2076780796051025,2.2265214920043945
1729114735729309200,25.98530908203125,11.665608406066895,2.0425732135772705,1.3576277494430542
1729114735767243800,26.023243896484374,8.132007598876953,2.3273191452026367,0.7495517134666443
1729114735805178000,26.06117822265625,10.79432201385498,0.6873382925987244,0.41186460852622986
1729114735843112400,26.099112548828124,11.426326751708984,0.33798620104789734,1.745265007019043
1729114735881047000,26.137047119140625,9.96580696105957,0.8165507316589355,1.5466607809066772
1729114735918981400,26.1749814453125,11.703893661499023,0.6275177597999573,1.8293129205703735
1729114735956915700,26.212915771484376,9.724132537841797,0.9508479237556458,1.3145569562911987
1729114735994850300,26.250850341796873,11.067103385925293,0.6897311210632324,2.478066921234131
1729114736032784600,26.28878466796875,6.291029930114746,0.14386846125125885,0.09571290761232376
1729114736070719000,26.326718994140624,8.88365364074707,0.40737804770469666,1.470090389251709
1729114736108653600,26.364653564453125,10.229316711425781,-0.19591236114501953,0.5530411601066589
1729114736146588000,26.402587890625,9.163912773132324,1.0082756280899048,1.3671990633010864
1729114736184522500,26.4405224609375,9.767203330993652,-0.7393822073936462,0.3640081584453583
1729114736222456800,26.478456787109376,9.71695327758789,-0.10977073758840561,0.4142574071884155
1729114736260391200,26.51639111328125,9.874879837036133,0.5964110493659973,0.1989033818244934
1729114736298325800,26.55432568359375,10.672287940979004,-0.1456630825996399,1.1730812788009644
1729114736336260000,26.592260009765624,12.051152229309082,0.3281157910823822,0.6152545213699341
1729114736374194400,26.6301943359375,9.305088996887207,0.37866419553756714,1.0223335027694702
1729114736412129000,26.66812890625,9.791131019592285,-0.30149564146995544,0.1821536272764206
1729114736450063400,26.7060634765625,10.234102249145508,-0.3924229145050049,0.3233301639556885
1729114736487998000,26.743998046875,8.275577545166016,1.939382791519165,0.2922234535217285
1729114736525932300,26.781932373046875,7.559823989868164,-0.05952146276831627,2.1882362365722656
1729114736563866600,26.81986669921875,13.911273002624512,-1.196710467338562,0.7806583642959595
1729114736601801200,26.85780126953125,9.836594581604004,0.31854450702667236,1.1252248287200928
1729114736639735600,26.895735595703126,11.462218284606934,0.06011966988444328,1.3336994647979736
1729114736677670100,26.933670166015624,10.724929809570312,0.005084747914224863,0.9960124492645264
1729114736715604500,26.9716044921875,5.802595138549805,0.014656038954854012,-0.14835500717163086
1729114736753538800,27.009538818359374,9.137591361999512,0.5318048596382141,-0.15074782073497772
1729114736791473400,27.047473388671875,10.482955932617188,-0.3517449200153351,0.26590242981910706
1729114736829407700,27.08540771484375,8.266005516052246,-0.8688937425613403,0.9385846853256226
1729114736867342000,27.123342041015626,7.399505138397217,0.4097708761692047,0.42382872104644775
1729114736905276700,27.161276611328127,12.39841079711914,-0.9263214468955994,0.30658039450645447
1729114736943211000,27.1992109375,9.95145034790039,0.2347957193851471,0.05503492057323456
1729114736981145300,27.237145263671874,11.239686012268066,-0.2512463629245758,0.7040880918502808
1729114737019080000,27.275079833984375,11.641680717468262,-1.4985052347183228,-0.0933200865983963
1729114737057014300,27.31301416015625,11.431112289428711,-1.3331012725830078,-0.675075113773346
1729114737094948600,27.350948486328125,9.290732383728027,-0.3158525824546814,-0.8784649968147278
1729114737132883200,27.38888330078125,11.677572250366211,-1.5152549743652344,-0.46450668573379517
1729114737170817500,27.426817626953124,9.33141040802002,-1.3956137895584106,-1.5777673721313477
1729114737208752000,27.464752197265625,10.131211280822754,-0.18394823372364044,-1.2687941789627075
1729114737246686500,27.5026865234375,10.310672760009766,-0.44027936458587646,-1.9007984399795532
1729114737284620800,27.540620849609375,10.667502403259277,-1.1177473068237305,-2.204986095428467
1729114737322555400,27.578555419921877,9.027522087097168,-1.7736797332763672,-3.1432716846466064
1729114737360489700,27.61648974609375,10.861321449279785,-1.7617156505584717,-1.3812568187713623
1729114737398424000,27.654424072265623,8.036294937133789,-1.8885352611541748,-1.8912272453308105
1729114737436358700,27.692358642578125,9.961021423339844,-1.6516457796096802,-2.123331069946289
1729114737474293000,27.73029296875,9.008378982543945,-1.3980066776275635,-2.14516544342041
1729114737512227600,27.7682275390625,11.218151092529297,-0.6795616149902344,-1.7931214570999146
1729114737550162000,27.806161865234376,10.119247436523438,0.1582254022359848,-1.592124342918396
1729114737588096300,27.84409619140625,10.171889305114746,0.04097708687186241,-2.2241287231445312
1729114737626030800,27.88203076171875,6.791429042816162,-1.2684950828552246,-7.189534664154053
1729114737663965200,27.919965087890624,10.717751502990723,-0.0810568705201149,-2.6958138942718506
1729114737701899500,27.9578994140625,9.441479682922363,-0.03320041298866272,-1.9630118608474731
1729114737739834000,27.995834228515626,11.306685447692871,-0.24167509377002716,-0.20817556977272034
1729114737777768400,28.0337685546875,8.51037311553955,0.8982058167457581,0.263509601354599
1729114737815702800,28.071702880859377,10.94267749786377,1.3671990633010864,-0.4163511395454407
1729114737853637400,28.109637451171874,6.860820770263672,1.9154545068740845,-1.9319051504135132
1729114737891571700,28.14757177734375,13.844273567199707,1.2212368249893188,-1.3381860256195068
1729114737929506000,28.185506103515625,11.45264720916748,1.9537396430969238,1.6304094791412354
1729114737967440600,28.223440673828126,10.830214500427246,1.3671990633010864,3.1627132892608643
1729114738005375000,28.261375,10.851749420166016,0.5796613097190857,0.12711870670318604
1729114738043309600,28.2993095703125,6.856035232543945,0.9125627279281616,-0.9861420392990112
1729114738081244000,28.337243896484374,10.729716300964355,0.43130627274513245,-0.43549370765686035
1729114738119178200,28.37517822265625,7.926225185394287,0.5126622319221497,0.064606212079525
1729114738157112800,28.41311279296875,10.325029373168945,-0.5359922647476196,-0.5937191247940063
1729114738195047200,28.451047119140625,7.0785675048828125,0.9747761487960815,-0.07417750358581543
1729114738232981800,28.488981689453126,10.193424224853516,0.09361918270587921,0.27308088541030884
1729114738270916000,28.526916015625,11.194222450256348,-1.43389892578125,0.2347957193851471
1729114738308850400,28.564850341796873,9.74806022644043,0.41934216022491455,-0.06699903309345245
1729114738346785000,28.602784912109374,7.456932544708252,-0.23210379481315613,-0.5195416212081909
1729114738384719400,28.64071923828125,10.660324096679688,-1.4051851034164429,0.0526420995593071
1729114738422653700,28.67865380859375,11.052746772766113,0.21326032280921936,-0.3397808074951172
1729114738460588300,28.71658837890625,10.760822296142578,0.13668999075889587,0.6535396575927734
1729114738498522600,28.754522705078124,12.386445999145508,-0.7465606927871704,-0.27038896083831787
1729114738536457200,28.792457275390625,8.505587577819824,0.4145565330982208,-0.004785645287483931
1729114738574391600,28.8303916015625,9.894022941589355,-1.2373883724212646,0.014356935396790504
1729114738612326000,28.868325927734375,9.786345481872559,-1.0818549394607544,-0.09810572862625122
1729114738650260500,28.906260498046876,13.59781265258789,-0.4977070987224579,0.3448655605316162
1729114738688194800,28.94419482421875,7.655537128448486,0.23240290582180023,1.043868899345398
1729114738726129200,28.982129150390627,10.301101684570312,-1.7688941955566406,0.246759831905365
1729114738764063700,29.020063720703124,12.197113990783691,-1.2230315208435059,0.7998009920120239
1729114738801998000,29.057998046875,9.340981483459473,0.20129621028900146,1.2355937957763672
1729114738839932400,29.095932373046875,11.536396026611328,-0.7010970115661621,0.8548358678817749
1729114738877867000,29.133866943359376,7.828119277954102,-0.3684946894645691,0.5099703073501587
1729114738915801300,29.17180126953125,12.058330535888672,-0.6675975322723389,1.9130617380142212
1729114738953735700,29.209735595703126,5.440979480743408,-0.16719847917556763,0.45254257321357727
1729114738991670300,29.247670166015624,10.772787094116211,-1.4817553758621216,0.23718854784965515
1729114739029604600,29.2856044921875,11.79272747039795,-0.47617170214653015,1.3887344598770142
1729114739067539200,29.323539306640626,9.685847282409668,-0.6484549641609192,0.8739784955978394
1729114739105473500,29.3614736328125,11.098210334777832,-0.1504487246274948,1.4294124841690063
1729114739143407900,29.399407958984376,7.418647289276123,0.9699904918670654,1.3648061752319336
1729114739181342500,29.437342529296874,13.8849515914917,-1.5296118259429932,1.3863415718078613
1729114739219276800,29.47527685546875,12.087044715881348,-0.8593224287033081,1.810170292854309
1729114739257211400,29.51321142578125,7.739285945892334,-0.5240281820297241,1.6806588172912598
1729114739295145700,29.551145751953126,12.355340003967285,-1.0411769151687622,1.2329018115997314
1729114739333080000,29.589080078125,10.578668594360352,-0.48574298620224,1.2451651096343994
1729114739371014700,29.6270146484375,10.418350219726562,-0.8760721683502197,1.410269856452942
1729114739408949000,29.664948974609374,9.590133666992188,-1.012463092803955,1.1539387702941895
1729114739446883300,29.70288330078125,11.467004776000977,-1.1177473068237305,0.5027918815612793
1729114739484818000,29.74081787109375,6.657131671905518,-1.43389892578125,-1.2831511497497559
1729114739522752300,29.778752197265625,12.611371994018555,-1.0651051998138428,-0.42352959513664246
1729114739560686600,29.8166865234375,6.970890522003174,-1.3621143102645874,-0.1986042857170105
1729114739598621200,29.85462109375,12.965808868408203,-2.506481647491455,-0.22013968229293823
1729114739636555500,29.892555419921877,8.91954517364502,-1.9247267246246338,-0.7301099896430969
1729114739674489900,29.93048974609375,10.80867862701416,-2.0228323936462402,-0.5099703073501587
1729114739712424400,29.968424560546875,9.937093734741211,-2.2214367389678955,-0.363709032535553
1729114739750358800,30.00635888671875,9.855737686157227,-2.3386850357055664,-0.1579262912273407
1729114739788293400,30.04429345703125,9.537491798400879,-2.202294111251831,0.12233305722475052
1729114739826227700,30.082227783203123,9.700203895568848,-2.082653045654297,0.062213387340307236
1729114739864162000,30.120162109375,9.774381637573242,-2.4032912254333496,-0.38763725757598877
1729114739902096600,30.1580966796875,9.920343399047852,-2.061117649078369,-0.20099709928035736
1729114739940031000,30.196031005859375,9.838987350463867,-1.8191434144973755,-0.6248258352279663
1729114739977965300,30.23396533203125,9.870094299316406,-1.5176477432250977,-0.20338992774486542
1729114740015900000,30.27189990234375,9.836594581604004,-1.0100702047348022,-0.30628129839897156
1729114740053834200,30.309834228515626,9.867701530456543,-0.5551348328590393,-0.4259224236011505
1729114740091768800,30.347768798828124,9.882058143615723,-0.1863410621881485,-0.3684946894645691
1729114740129703200,30.385703125,9.917950630187988,0.08165507018566132,0.004785645287483931
1729114740167637500,30.423637451171874,9.779167175292969,0.24197418987751007,0.06699903309345245
1729114740205572000,30.461572021484375,9.96580696105957,0.2874378263950348,-0.33499518036842346
1729114740243506400,30.49950634765625,9.87966537475586,0.3595215976238251,-0.22492532432079315
1729114740281441000,30.53744091796875,9.95145034790039,0.33050861954689026,-0.23449662327766418
1729114740319375400,30.575375244140623,9.87248706817627,0.23240290582180023,-0.2679961323738098
1729114740357309700,30.613309814453125,9.910772323608398,0.134297177195549,-0.16271193325519562
1729114740395244300,30.651244384765626,9.874879837036133,0.04097708687186241,-0.2727817893028259
1729114740433178600,30.6891787109375,9.905986785888672,-0.02841476909816265,-0.20578274130821228
1729114740471113000,30.727113037109376,9.889236450195312,-0.07866404205560684,-0.23210379481315613
1729114740509047600,30.765047607421874,9.908379554748535,-0.09780662506818771,-0.21774685382843018
1729114740546982000,30.80298193359375,9.896415710449219,-0.11694920808076859,-0.2225325107574463
1729114740584916200,30.840916259765624,9.891630172729492,-0.12652049958705902,-0.2392822653055191
1729114740622850800,30.878850830078125,9.896415710449219,-0.11216355860233307,-0.23210379481315613
1729114740660785200,30.91678515625,9.896415710449219,-0.09780662506818771,-0.23688943684101105
1729114740698719700,30.9547197265625,9.894022941589355,-0.07627122104167938,-0.22013968229293823
1729114740736654000,30.992654052734373,9.884450912475586,-0.045164529234170914,-0.2273181527853012
1729114740774588400,31.03058837890625,9.88684368133545,-0.018843477591872215,-0.2225325107574463
1729114740812523000,31.06852294921875,9.908379554748535,-0.02841476909816265,-0.2225325107574463
1729114740850457300,31.106457275390625,9.894022941589355,-0.03320041298866272,-0.23449662327766418
1729114740888391700,31.1443916015625,9.905986785888672,-0.03559323772788048,-0.22492532432079315
1729114740926326300,31.182326171875,9.889236450195312,-0.040378883481025696,-0.2153540402650833
1729114740964260600,31.220260498046876,9.88684368133545,-0.03559323772788048,-0.23210379481315613
1729114741002195200,31.2581953125,9.913165092468262,-0.03798605874180794,-0.21296121180057526
1729114741040129500,31.296129638671875,9.884450912475586,-0.05952146276831627,-0.23688943684101105
1729114741078063900,31.33406396484375,9.894022941589355,-0.05234299600124359,-0.18903298676013947
1729114741115998500,31.37199853515625,9.963414192199707,-0.00687936507165432,-0.02632104977965355
1729114741153932800,31.409932861328127,9.702596664428711,0.1462612897157669,-0.02153540402650833
1729114741191867100,31.4478671875,9.894022941589355,-0.04755735024809837,0.07896314561367035
1729114741229801700,31.4858017578125,10.138389587402344,-0.002093719784170389,0.6678966283798218
1729114741267736000,31.523736083984375,9.819845199584961,-0.16480566561222076,0.6873382925987244
1729114741305670700,31.561670654296876,10.112068176269531,-0.10977073758840561,0.7878368496894836
1729114741343605000,31.59960498046875,9.786345481872559,0.2108674943447113,1.285843014717102
1729114741381539300,31.637539306640626,10.353743553161621,-0.23210379481315613,0.39511483907699585
1729114741419474000,31.675473876953124,10.011270523071289,-0.4450650215148926,0.2706880569458008
1729114741457408300,31.713408203125,9.915557861328125,-0.39481574296951294,0.059820566326379776
1729114741495342800,31.7513427734375,9.573384284973145,-0.34217363595962524,-0.33738797903060913
1729114741533277200,31.789277099609375,10.119247436523438,-0.7393822073936462,-0.8736793398857117
1729114741571211500,31.82721142578125,9.604491233825684,-0.2991028428077698,-0.2584248483181
1729114741609146000,31.86514599609375,10.2747802734375,-0.6652047038078308,-0.8042874932289124
1729114741647080400,31.90308056640625,10.269994735717773,-0.6675975322723389,-0.6942176818847656
1729114741685015000,31.94101513671875,9.87966537475586,-0.605384111404419,-0.14835500717163086
1729114741722949400,31.978949462890625,9.752845764160156,-0.33499518036842346,-0.11964113265275955
1729114741760883700,32.0168837890625,9.74806022644043,-0.3158525824546814,-0.23210379481315613
1729114741798818300,32.054818359375,9.75523853302002,-0.18873389065265656,0.246759831905365
1729114741836752600,32.09275268554688,10.066604614257812,-0.5790630578994751,-0.17706887423992157
1729114741874687000,32.13068701171875,9.96580696105957,-0.38763725757598877,0.10049854964017868
1729114741912621600,32.16862158203125,10.04985523223877,-0.48574298620224,-0.22971096634864807
1729114741950556000,32.20655590820313,9.752845764160156,-0.31824541091918945,-0.25363919138908386
1729114741988490500,32.24449047851562,9.807881355285645,-0.4666004180908203,-0.1579262912273407
1729114742026424800,32.2824248046875,9.977771759033203,-0.3445664644241333,0.20129621028900146
1729114742064359200,32.32035913085937,9.805487632751465,-0.5335994362831116,-0.39960137009620667
1729114742102293800,32.358293701171874,9.925128936767578,-0.4163511395454407,-0.12203395366668701
1729114742140228000,32.39622802734375,10.054640769958496,-0.5958128571510315,-0.3565305769443512
1729114742178162400,32.434162353515624,9.84138011932373,-0.48095735907554626,0.0023928226437419653
1729114742216097000,32.472096923828126,9.64038372039795,-0.39481574296951294,-0.28235307335853577
1729114742254031400,32.51003125,9.676275253295898,-0.5264210104942322,-0.2560320198535919
1729114742291966000,32.54796606445313,9.838987350463867,-0.5647061467170715,0
1729114742329900300,32.585900390625,9.783952713012695,-0.7130611538887024,-0.3397808074951172
1729114742367834600,32.62383471679688,10.023235321044922,-0.4139583110809326,-0.02871387079358101
1729114742405769200,32.66176928710937,9.915557861328125,-0.6675975322723389,-0.18903298676013947
1729114742443703600,32.69970361328125,9.743274688720703,-0.4618147611618042,-0.2799602448940277
1729114742481638100,32.73763818359375,9.984950065612793,-0.5455635786056519,-0.09571290761232376
1729114742519572500,32.775572509765624,9.910772323608398,-0.5551348328590393,-0.07417750358581543
1729114742557506800,32.8135068359375,9.817452430725098,-0.45942193269729614,-0.20099709928035736
1729114742595441400,32.85144140625,9.88684368133545,-0.550349235534668,-0.2967100143432617
1729114742633375700,32.889375732421875,10.059426307678223,-0.45942193269729614,0.04307080805301666
1729114742671310000,32.92731005859375,9.7097749710083,-0.5431707501411438,-0.25363919138908386
1729114742709244700,32.96524462890625,9.925128936767578,-0.41156548261642456,0.019142581149935722
1729114742747179000,33.00317895507813,9.992128372192383,-0.5575276613235474,-0.48843491077423096
1729114742785113600,33.04111352539063,9.704989433288574,-0.3158525824546814,-1.0151549577713013
1729114742823048000,33.0790478515625,9.84855842590332,-0.41874396800994873,-2.166700839996338
1729114742860982300,33.11698217773438,9.838987350463867,-0.2030908167362213,-1.8936200141906738
1729114742898916900,33.15491674804687,9.838987350463867,-0.24885354936122894,-1.3884353637695312
1729114742936851200,33.192851318359374,9.685847282409668,0.1534397453069687,-0.007178467698395252
1729114742974785800,33.230785888671875,9.917950630187988,-0.12412767112255096,0.24915266036987305
1729114743012720000,33.26872021484375,9.774381637573242,-0.045164529234170914,-0.3900300860404968
1729114743050654500,33.306654541015625,10.006484985351562,-0.12412767112255096,-0.16031911969184875
1729114743088589000,33.344589111328126,9.819845199584961,-0.0810568705201149,-0.11724831163883209
1729114743126523400,33.3825234375,10.016056060791016,-0.1217348501086235,-0.18903298676013947
1729114743164458000,33.4204580078125,9.817452430725098,-0.06669992953538895,-0.12921242415905
1729114743202392300,33.45839233398438,9.908379554748535,-0.10977073758840561,-0.15553347766399384
1729114743240326700,33.49632666015625,9.846165657043457,-0.07866404205560684,-0.17228323221206665
1729114743278261200,33.53426123046875,9.932307243347168,-0.08344969153404236,-0.14117653667926788
1729114743316195600,33.57219555664062,9.87966537475586,-0.08344969153404236,-0.18424734473228455
1729114743354130200,33.61013012695312,9.929914474487305,-0.07627122104167938,-0.13160525262355804
1729114743392064500,33.648064453125,9.884450912475586,-0.07866404205560684,-0.17228323221206665
1729114743429998800,33.685998779296874,9.896415710449219,-0.07387840002775192,-0.12681959569454193
1729114743467933400,33.723933349609375,9.891630172729492,-0.08584251254796982,-0.1698904037475586
1729114743505867800,33.76186767578125,9.903594017028809,-0.07866404205560684,-0.15074782073497772
1729114743543802400,33.79980224609375,9.87966537475586,-0.08344969153404236,-0.16031911969184875
1729114743581736700,33.83773681640625,9.896415710449219,-0.08344969153404236,-0.15314064919948578
1729114743619671000,33.87567114257813,9.915557861328125,-0.12412767112255096,-0.1986042857170105
1729114743657605600,33.91360571289062,9.949057579040527,0.10079765319824219,-0.17228323221206665
1729114743695540000,33.9515400390625,9.994521141052246,0.22761724889278412,-0.27038896083831787
1729114743733474600,33.989474609375,9.925128936767578,0.7112665176391602,-0.1698904037475586
1729114743771409000,34.02740893554687,9.968199729919434,1.1566306352615356,-0.25363919138908386
1729114743809343200,34.06534326171875,10.016056060791016,1.450947880744934,-0.42831525206565857
1729114743847277800,34.10327783203125,10.116853713989258,1.5565310716629028,-0.4211367964744568
1729114743885212200,34.141212158203125,10.26760196685791,1.604387640953064,-0.10289137065410614
1729114743923146800,34.179146728515626,9.743274688720703,1.5302101373672485,-0.32303106784820557
1729114743961081000,34.2170810546875,9.946664810180664,1.7694923877716064,-0.16031911969184875
1729114743999015400,34.255015380859376,9.008378982543945,1.568495273590088,-0.8473583459854126
1729114744036950000,34.29294995117188,10.435099601745605,1.2954143285751343,-0.2105683982372284
1729114744074884400,34.33088427734375,8.665905952453613,1.355234980583191,-0.33020952343940735
1729114744112819000,34.36881884765625,10.542776107788086,0.8835497498512268,-0.4043870270252228
1729114744150753300,34.40675317382812,9.8509521484375,0.15104693174362183,-0.7588238716125488
1729114744188687600,34.4446875,11.289935111999512,0.7328019142150879,-0.11006984114646912
1729114744226622200,34.482622314453124,14.787644386291504,1.0202397108078003,0.43579283356666565
1729114744264556500,34.520556640625,6.798607349395752,0.953240692615509,-0.3756731450557709
1729114744302491100,34.5584912109375,10.13599681854248,0.6346961855888367,-0.42352959513664246
1729114744340425500,34.596425537109376,8.970093727111816,0.01704886183142662,-1.3142578601837158
1729114744378359800,34.63435986328125,8.342576026916504,0.6705885529518127,-0.9598209857940674
1729114744416294400,34.67229443359375,12.491730690002441,0.4911268353462219,-0.579362154006958
1729114744454228700,34.71022875976563,10.382457733154297,1.0680961608886719,-0.2632105052471161
1729114744492163000,34.7481630859375,10.473384857177734,1.6019947528839111,-0.5578267574310303
1729114744530097700,34.78609765625,11.443076133728027,0.8883354067802429,-0.7205387353897095
1729114744568032000,34.82403198242187,12.563515663146973,0.26590242981910706,-0.44027936458587646
1729114744605966600,34.86196655273437,8.622835159301758,2.011167526245117,0.4453641176223755
1729114744643901000,34.89990087890625,9.882058143615723,1.4895321130752563,0.2108674943447113
1729114744681835300,34.93783520507812,7.9381890296936035,1.3863415718078613,-0.6367899179458618
1729114744719769900,34.975769775390624,9.283554077148438,1.5182459354400635,0.4214358925819397
1729114744757704200,35.0137041015625,9.525527954101562,0.6729813814163208,1.316949725151062
1729114744795638800,35.051638671875,8.94137954711914,0.8859425783157349,0.134297177195549
1729114744833573000,35.089572998046876,6.563811779022217,0.529412031173706,-0.5554339289665222
1729114744871507500,35.12750756835938,14.349458694458008,-0.08344969153404236,0.35443684458732605
1729114744909442000,35.16544213867188,9.547062873840332,-0.016450656577944756,1.312164068222046
1729114744947376400,35.20337646484375,8.134400367736816,-0.13848461210727692,-0.16271193325519562
1729114744985311000,35.24131103515625,10.162318229675293,-0.4019941985607147,0.7447660565376282
1729114745023245300,35.27924536132812,9.448657989501953,0.09122636169195175,1.1994023323059082
1729114745061179600,35.3171796875,10.973783493041992,-0.1863410621881485,1.3983057737350464
1729114745099114200,35.3551142578125,9.580562591552734,-0.49292147159576416,0.5003990530967712
1729114745137048600,35.393048583984374,10.992926597595215,-0.3756731450557709,0.9577272534370422
1729114745174983200,35.430983154296875,8.522336959838867,0.3690928816795349,1.5777673721313477
1729114745212917500,35.46891748046875,10.966605186462402,-1.06271231174469,2.1930220127105713
1729114745250851800,35.506851806640626,10.734501838684082,-0.023629123345017433,1.7572290897369385
1729114745288786400,35.54478637695313,7.368398189544678,0.25393831729888916,1.0965110063552856
1729114745326720800,35.582720703125,13.805988311767578,-0.5048855543136597,1.805384635925293
1729114745364655400,35.6206552734375,9.276374816894531,0.646660327911377,1.6926229000091553
1729114745402589700,35.65858959960938,9.611669540405273,0.34995031356811523,1.2355937957763672
1729114745440524300,35.69652416992187,11.100603103637695,-0.5072783827781677,0.5434698462486267
1729114745478458600,35.73445874023437,8.574978828430176,-0.21984058618545532,0.643968403339386
1729114745516393000,35.77239306640625,8.977272033691406,-0.607776939868927,0.27786654233932495
1729114745554327600,35.81032763671875,8.64915657043457,0.00029910283046774566,1.1108678579330444
1729114745592262000,35.848261962890625,10.856535911560059,0.41216370463371277,1.3145569562911987
1729114745630196500,35.886196533203126,9.8509521484375,-0.7106683254241943,0.009571290574967861
1729114745668130800,35.924130859375,10.935498237609863,-0.4307080805301666,0.37836506962776184
1729114745706065400,35.9620654296875,12.055937767028809,0.2946162819862366,0.035892341285943985
1729114745743999700,35.99999975585938,7.183851718902588,0.6993024349212646,-0.6152545213699341
1729114745781934000,36.03793408203125,11.581859588623047,-0.9287142753601074,0.26590242981910706
1729114745819868700,36.07586865234375,9.587740898132324,-0.4666004180908203,0.9696913957595825
1729114745857803000,36.11380297851562,14.05514144897461,0.13190434873104095,-0.44027936458587646
1729114745895737300,36.1517373046875,8.323433876037598,0.44327038526535034,1.201795220375061
1729114745933672000,36.189671875,9.652347564697266,-0.17676977813243866,-0.8641080856323242
1729114745971606300,36.227606201171874,9.597312927246094,-0.6149554252624512,-0.20578274130821228
1729114746009540900,36.265540771484375,8.67308521270752,0.2802593410015106,-0.38285163044929504
1729114746047475200,36.30347509765625,11.431112289428711,-0.4163511395454407,-0.04785645380616188
1729114746085409500,36.341409423828125,10.497312545776367,-1.2780663967132568,-0.5386841893196106
1729114746123344100,36.37934423828125,13.681561470031738,-0.0690927505493164,-0.48364928364753723
1729114746161278500,36.41727856445313,6.4920268058776855,0.5533402562141418,-0.7779664397239685
1729114746199213000,36.45521313476563,11.256436347961426,-0.8521439433097839,-1.0342975854873657
1729114746237147400,36.4931474609375,8.000402450561523,-1.5583257675170898,-1.1324033737182617
1729114746275082000,36.53108203125,12.66162109375,0.8404789566993713,-0.8066803216934204
1729114746313016300,36.56901635742187,7.638787269592285,0.529412031173706,-1.3716856241226196
1729114746350951000,36.606950927734374,11.675179481506348,-1.965404748916626,-1.9175482988357544
1729114746388885200,36.64488525390625,10.107282638549805,-1.318744421005249,-1.0701899528503418
1729114746426819600,36.682819580078124,10.607682228088379,-0.09780662506818771,-2.4083759784698486
1729114746464754200,36.720754150390626,7.693821907043457,0.2706880569458008,-2.2193429470062256
1729114746502688500,36.7586884765625,10.193424224853516,-0.7106683254241943,-2.2337000370025635
1729114746540623000,36.796623046875,9.9442720413208,-0.2392822653055191,-1.8864415884017944
1729114746578557400,36.83455737304688,9.795916557312012,-0.4139583110809326,-2.1714866161346436
1729114746616491800,36.87249169921875,10.016056060791016,-0.9981061220169067,-1.4769697189331055
1729114746654426400,36.91042626953125,10.348958015441895,0.18454644083976746,-1.5056836605072021
1729114746692360700,36.94836059570312,9.010771751403809,-0.23210379481315613,-1.3022937774658203
1729114746730295300,36.98629541015625,9.436694145202637,-0.4737788736820221,-1.5032907724380493
1729114746768229600,37.024229736328124,10.107282638549805,-0.5838487148284912,-1.934298038482666
1729114746806164000,37.0621640625,9.281160354614258,0.09122636169195175,-2.108973979949951
1729114746844098600,37.1000986328125,9.932307243347168,0.3329014480113983,-1.7524434328079224
1729114746882033000,37.138032958984375,9.046664237976074,-0.16002000868320465,-1.5343974828720093
1729114746919967500,37.17596752929688,12.12054443359375,-1.4075778722763062,-0.8114659786224365
1729114746957901800,37.21390185546875,9.63081169128418,-0.5814558863639832,-1.1539387702941895
1729114746995836400,37.25183642578125,9.32423210144043,0.5916253924369812,-0.7588238716125488
1729114747033770800,37.28977075195313,9.5231351852417,0.37148571014404297,-1.2735798358917236
1729114747071705000,37.327705078125,11.620144844055176,-0.17916259169578552,-0.7205387353897095
1729114747109639700,37.3656396484375,8.41705322265625,0.11515458673238754,-0.27038896083831787
1729114747147574000,37.40357397460937,11.187044143676758,-1.313958764076233,0.1175474151968956
1729114747185508600,37.441508544921874,7.653144359588623,-0.03320041298866272,-0.02392822690308094
1729114747223443000,37.47944287109375,8.457730293273926,0.3355933725833893,0.25633111596107483
1729114747261377500,37.51737744140625,10.689038276672363,-0.2799602448940277,0.36640095710754395
1729114747299311900,37.555311767578125,8.88125991821289,0.04576273262500763,-0.1698904037475586
1729114747337246200,37.59324609375,11.87886905670166,-0.2919243574142456,-0.14356936514377594
1729114747375180800,37.63118090820313,9.21416187286377,-0.2392822653055191,-0.5769693851470947
1729114747413115100,37.669115234375,9.657133102416992,0.33798620104789734,0.857228696346283
1729114747451049700,37.7070498046875,14.840286254882812,-0.7824530005455017,1.6447664499282837
1729114747488984000,37.74498413085937,10.698609352111816,-0.1983051747083664,0.9936196208000183
1729114747526918400,37.78291845703125,7.47846794128418,0.4145565330982208,0.7471588850021362
1729114747564853000,37.82085302734375,8.682656288146973,0.4695914387702942,1.1108678579330444
1729114747602787300,37.85878735351562,10.913963317871094,-0.5670989751815796,0.9960124492645264
1729114747640722000,37.896721923828125,8.936594009399414,0.5126622319221497,1.2954143285751343
1729114747678656300,37.93465625,10.983354568481445,-0.12891331315040588,1.0462616682052612
1729114747716590800,37.9725908203125,6.762714862823486,0.8356932997703552,1.3815559148788452
1729114747754525200,38.010525146484376,9.870094299316406,0.1869392693042755,1.592124342918396
1729114747792459800,38.04845971679688,11.905189514160156,-1.1249257326126099,1.0223335027694702
1729114747830394000,38.08639404296875,8.479266166687012,0.2228316068649292,2.4684956073760986
1729114747868328400,38.12432836914063,11.026426315307617,-0.39481574296951294,1.6064813137054443
1729114747906263000,38.16226293945312,8.26121997833252,-0.49292147159576416,1.678265929222107
1729114747944197400,38.200197265625,12.240184783935547,-0.6556333899497986,1.2451651096343994
1729114747982132000,38.238132080078124,8.206185340881348,-0.28235307335853577,1.568196177482605
1729114748020066300,38.27606640625,10.913963317871094,-0.33499518036842346,1.8939191102981567
1729114748058000600,38.314000732421874,6.377171516418457,0.7806583642959595,1.7404793500900269
1729114748095935200,38.351935302734375,11.883654594421387,-0.5359922647476196,2.4278175830841064
1729114748133869600,38.38986962890625,10.578668594360352,0.2874378263950348,2.511566400527954
1729114748171804200,38.42780419921875,5.053342342376709,1.7120646238327026,1.8843477964401245
1729114748209738500,38.46573852539063,13.667204856872559,-0.6173482537269592,2.3437697887420654
1729114748247673000,38.50367309570313,8.946166038513184,-0.3038884699344635,1.6160526275634766
1729114748285607400,38.541607421875,11.002497673034668,-0.5407779216766357,1.2690932750701904
1729114748323541800,38.57954174804688,10.643573760986328,-0.3278166949748993,0.6777670383453369
1729114748361476400,38.61747631835937,7.147959232330322,0.024227328598499298,0.9146564602851868
1729114748399410700,38.65541064453125,12.130115509033203,-0.8784649968147278,1.3959128856658936
1729114748437345300,38.69334521484375,12.594621658325195,-1.795215129852295,1.477268934249878
1729114748475279600,38.731279541015624,10.102497100830078,-1.5966109037399292,-1.6112669706344604
1729114748513214200,38.769214111328125,11.361720085144043,-1.9199410676956177,-2.808276414871216
1729114748551148500,38.8071484375,9.33858871459961,-1.7617156505584717,-0.48364928364753723
1729114748589083000,38.845082763671876,10.284351348876953,-1.40279221534729,-0.038285162299871445
1729114748627017500,38.883017578125,9.75523853302002,-1.989332914352417,0.064606212079525
1729114748664951800,38.92095190429688,9.355338096618652,-1.689931035041809,-0.46450668573379517
1729114748702886400,38.95888647460937,11.0742826461792,-2.250150680541992,-0.02871387079358101
1729114748740820700,38.99682080078125,9.477372169494629,-1.80717933177948,-0.3206382393836975
1729114748778755300,39.03475537109375,10.303494453430176,-2.1879372596740723,-0.31106695532798767
1729114748816689700,39.07268969726562,9.559027671813965,-2.662015199661255,-0.7157530784606934
1729114748854624000,39.1106240234375,10.420742988586426,-2.274078845977783,0.19651055335998535
1729114748892558600,39.14855859375,9.702596664428711,-2.24775767326355,-0.41156548261642456
1729114748930493000,39.186492919921875,10.025628089904785,-2.264507532119751,-0.31345975399017334
1729114748968427500,39.224427490234376,9.767203330993652,-2.3410778045654297,-0.6918248534202576
1729114749006361900,39.26236181640625,10.028020858764648,-2.027618169784546,-0.2560320198535919
1729114749044296400,39.30029638671875,9.838987350463867,-1.5200406312942505,-0.26560330390930176
1729114749082230800,39.33823071289063,9.927521705627441,-1.1536396741867065,-0.4043870270252228
1729114749120165000,39.3761650390625,9.86530876159668,-0.6460621356964111,-0.29431718587875366
1729114749158099700,39.414099609375,9.908379554748535,-0.27038896083831787,-0.4450650215148926
1729114749196034000,39.45203393554687,9.87248706817627,0.024227328598499298,-0.3206382393836975
1729114749233968600,39.48996875,9.894022941589355,0.18454644083976746,-0.24885354936122894
1729114749271903000,39.527903076171874,9.798309326171875,0.32572299242019653,0
1729114749309837600,39.565837646484376,10.14317512512207,0.3355933725833893,0.3640081584453583
1729114749347772000,39.60377197265625,9.731310844421387,0.20368902385234833,-0.39481574296951294
1729114749385706500,39.64170654296875,9.9442720413208,0.20368902385234833,-0.2847459018230438
1729114749423640800,39.67964086914063,9.843772888183594,0.24436701834201813,-0.04307080805301666
1729114749461575200,39.7175751953125,9.968199729919434,0.09601201117038727,-0.2799602448940277
1729114749499509800,39.755509765625,9.87248706817627,0.04576273262500763,-0.14356936514377594
1729114749537444000,39.79344409179687,9.913165092468262,-0.011665010824799538,-0.1866401731967926
1729114749575378700,39.83137866210937,9.877272605895996,-0.03559323772788048,-0.1818545162677765
1729114749613313000,39.86931298828125,9.908379554748535,-0.06430710852146149,-0.15553347766399384
1729114749651247600,39.90724755859375,9.896415710449219,-0.07387840002775192,-0.18903298676013947
1729114749689182000,39.945181884765624,9.910772323608398,-0.05952146276831627,-0.16749759018421173
1729114749727116300,39.9831162109375,9.896415710449219,-0.04755735024809837,-0.1579262912273407
1729114749765051000,40.02105078125,9.894022941589355,-0.042771704494953156,-0.1746760457754135
1729114749802985200,40.058985107421876,9.901201248168945,-0.04995017126202583,-0.1698904037475586
1729114749840919800,40.096919921875,9.894022941589355,-0.03320041298866272,-0.1746760457754135
1729114749878854100,40.13485424804688,9.896415710449219,-0.042771704494953156,-0.18903298676013947
1729114749916788700,40.17278881835937,9.898808479309082,-0.026021946221590042,-0.1698904037475586
1729114749954723000,40.21072314453125,9.898808479309082,-0.023629123345017433,-0.16749759018421173
1729114749992657400,40.24865747070312,9.903594017028809,-0.018843477591872215,-0.1746760457754135
1729114750030592000,40.28659204101562,9.901201248168945,-0.023629123345017433,-0.17946170270442963
1729114750068526300,40.3245263671875,9.891630172729492,-0.026021946221590042,-0.16271193325519562
1729114750106461000,40.3624609375,9.903594017028809,-0.021236300468444824,-0.18424734473228455
1729114750144395300,40.400395263671875,9.884450912475586,-0.026021946221590042,-0.16510476171970367
1729114750182329900,40.438329833984376,9.905986785888672,-0.03080759197473526,-0.19142581522464752
1729114750220264200,40.47626416015625,9.898808479309082,-0.021236300468444824,-0.16749759018421173
1729114750258198800,40.51419873046875,9.901201248168945,0.01944168470799923,-0.02632104977965355
1729114750296133000,40.55213305664063,9.913165092468262,0.014656038954854012,-0.2153540402650833
1729114750334067500,40.5900673828125,9.874879837036133,-0.03559323772788048,-0.09810572862625122
1729114750372002000,40.628001953125,9.147162437438965,0.246759831905365,0.3568296730518341
1729114750409936400,40.66593627929687,10.262816429138184,-0.15523436665534973,0.40229329466819763
1729114750447871000,40.70387109375,9.757631301879883,0.34995031356811523,0.8715856671333313
1729114750485805300,40.741805419921874,9.807881355285645,0.33798620104789734,0.7998009920120239
1729114750523740000,40.779739990234376,9.987342834472656,-0.002093719784170389,0.7639086246490479
1729114750561674200,40.81767431640625,9.803094863891602,-0.0930209830403328,1.0223335027694702
1729114750599608800,40.85560888671875,9.661918640136719,0.04815555736422539,0.8835497498512268
1729114750637543200,40.89354321289063,9.781559944152832,-0.10498509556055069,0.3520440459251404
1729114750675477500,40.9314775390625,9.934700965881348,-0.26560330390930176,0.43100717663764954
1729114750713412000,40.969412109375,9.88684368133545,-0.2991028428077698,-0.019142581149935722
1729114750751346400,41.00734643554687,9.862915992736816,-0.16002000868320465,0.30658039450645447
1729114750789281000,41.04528100585937,9.671489715576172,-0.3613162338733673,0.04785645380616188
1729114750827215400,41.08321533203125,9.9442720413208,-0.6915257573127747,-0.16510476171970367
1729114750865150000,41.12114990234375,9.85813045501709,-0.5072783827781677,0.16301104426383972
1729114750903084300,41.159084228515624,9.999306678771973,-0.5144568681716919,0.08853443711996078
1729114750941019000,41.197018798828125,9.84138011932373,-0.5958128571510315,-0.05503492057323456
1729114750978953200,41.234953125,9.855737686157227,-0.4546363055706024,-0.11006984114646912
1729114751016887600,41.272887451171876,9.98255729675293,-0.4259224236011505,0.2682952284812927
1729114751054822100,41.310822265625,9.781559944152832,-0.380458801984787,0.26111677289009094
1729114751092756500,41.34875659179688,9.83420181274414,-0.45942193269729614,-0.1866401731967926
1729114751130691000,41.38669116210937,10.14317512512207,-0.6125625967979431,0.2515454888343811
1729114751168625400,41.42462548828125,10.071390151977539,-0.6101697683334351,0.1534397453069687
1729114751206560000,41.46256005859375,10.008877754211426,-0.5096712112426758,-0.38285163044929504
1729114751244494300,41.500494384765624,9.791131019592285,-0.5312066078186035,-0.2847459018230438
1729114751282429000,41.538428955078125,9.84855842590332,-0.3684946894645691,0.41904306411743164
1729114751320363300,41.57636328125,9.870094299316406,-0.49292147159576416,0.28504499793052673
1729114751358297900,41.6142978515625,9.714560508728027,-0.4953143000602722,-0.04546362906694412
1729114751396232200,41.652232177734376,10.356136322021484,-0.7393822073936462,0.2515454888343811
1729114751434166500,41.69016650390625,9.752845764160156,-0.42352959513664246,0.11515458673238754
1729114751472101000,41.72810107421875,10.147960662841797,-0.7704889178276062,-0.26560330390930176
1729114751510035500,41.76603540039063,10.013663291931152,-0.7393822073936462,-0.17706887423992157
1729114751547970000,41.80396997070312,9.695418357849121,-0.46899324655532837,0.19651055335998535
1729114751585904400,41.841904296875,9.975378036499023,-0.6317051649093628,-0.1818545162677765
1729114751623839000,41.8798388671875,9.901201248168945,-0.6915257573127747,-0.11485548317432404
1729114751661773300,41.91777319335937,9.74806022644043,-0.5024927258491516,0.2228316068649292
1729114751699708000,41.9557080078125,9.695418357849121,-0.5240281820297241,0.09571290761232376
1729114751737642200,41.993642333984376,10.059426307678223,-0.6747759580612183,-0.24167509377002716
1729114751775576600,42.03157666015625,9.882058143615723,-0.8401798605918884,-0.797109067440033
1729114751813511200,42.06951123046875,10.16710376739502,-1.1488540172576904,-2.3700907230377197
1729114751851445500,42.10744555664063,9.649954795837402,-1.4434702396392822,-2.214557409286499
1729114751889380000,42.14538012695313,9.987342834472656,-0.9885348677635193,-0.734895646572113
1729114751927314400,42.183314453125,9.752845764160156,-0.9143573641777039,-0.26560330390930176
1729114751965249000,42.2212490234375,10.193424224853516,-0.5623133182525635,-0.07657032459974289
1729114752003183400,42.25918334960937,9.910772323608398,-0.21984058618545532,-0.37088751792907715
1729114752041118000,42.297117919921874,10.133604049682617,0.06011966988444328,-0.007178467698395252
1729114752079052300,42.33505224609375,9.805487632751465,0.24197418987751007,-0.19381862878799438
1729114752116987000,42.37298681640625,9.97298526763916,0.31375887989997864,-0.2512463629245758
1729114752154921200,42.410921142578125,9.860523223876953,0.26111677289009094,-0.11006984114646912
1729114752192855800,42.44885571289063,9.901201248168945,0.15583257377147675,-0.19381862878799438
1729114752230790100,42.4867900390625,9.84855842590332,0.10797612369060516,-0.14356936514377594
1729114752268724500,42.52472436523438,9.908379554748535,0.007477570790797472,-0.16749759018421173
1729114752306659000,42.5626591796875,9.898808479309082,-0.05952146276831627,-0.15553347766399384
1729114752344593400,42.60059350585937,9.915557861328125,-0.09062815457582474,-0.17706887423992157
1729114752382528000,42.63852807617187,9.905986785888672,-0.09780662506818771,-0.16271193325519562
1729114752420462300,42.67646240234375,9.898808479309082,-0.07627122104167938,-0.1698904037475586
1729114752458397000,42.71439697265625,9.898808479309082,-0.023629123345017433,-0.16510476171970367
1729114752496331300,42.752331298828125,9.901201248168945,0.009870393201708794,-0.17706887423992157
1729114752534265900,42.790265869140626,9.882058143615723,0.012263216078281403,-0.16271193325519562
1729114752572200200,42.8282001953125,9.884450912475586,0.00029910283046774566,-0.1746760457754135
1729114752610134800,42.866134765625,9.896415710449219,-0.014057832770049572,-0.16749759018421173
1729114752648069000,42.90406909179688,9.894022941589355,-0.03320041298866272,-0.1866401731967926
1729114752686003500,42.94200341796875,9.901201248168945,-0.045164529234170914,-0.1746760457754135
1729114752723938000,42.97993798828125,9.891630172729492,-0.040378883481025696,-0.17706887423992157
1729114752761872400,43.01787231445312,9.898808479309082,-0.021236300468444824,-0.17228323221206665
1729114752799807000,43.05580688476562,9.896415710449219,-0.03080759197473526,-0.17706887423992157
1729114752837741300,43.0937412109375,9.891630172729492,-0.021236300468444824,-0.1746760457754135
1729114752875676000,43.131676025390625,9.87248706817627,0.08644071966409683,-0.18903298676013947
1729114752913610200,43.1696103515625,9.889236450195312,0.4336991012096405,-0.18424734473228455
1729114752951544800,43.207544921875,9.75523853302002,0.7280163168907166,-0.0933200865983963
1729114752989479200,43.24547924804688,10.05703353881836,0.5030909776687622,0.03349951654672623
1729114753027413800,43.28341381835938,9.905986785888672,0.8069794178009033,-0.3445664644241333
1729114753065348000,43.32134814453125,9.618847846984863,1.3983057737350464,-0.12921242415905
1729114753103282700,43.35928271484375,9.673882484436035,1.7216359376907349,0.059820566326379776
1729114753141217000,43.39721704101562,9.884450912475586,1.7886348962783813,0.04785645380616188
1729114753179151400,43.4351513671875,9.635597229003906,1.7670994997024536,-0.2225325107574463
1729114753217086000,43.4730859375,9.532706260681152,1.719243049621582,0.10049854964017868
1729114753255020300,43.511020263671874,9.736096382141113,1.7718851566314697,-0.02392822690308094
1729114753292955000,43.548954833984375,10.284351348876953,1.786242127418518,0.16301104426383972
1729114753330889200,43.58688916015625,9.704989433288574,1.95852530002594,0.0933200865983963
1729114753368823800,43.62482373046875,10.322636604309082,1.7455641031265259,-0.24167509377002716
1729114753406758100,43.66275805664063,8.060222625732422,1.8556339740753174,-0.612861692905426
1729114753444692700,43.70069262695313,11.88604736328125,1.257129192352295,-0.7444669604301453
1729114753482627000,43.738626953125,10.806285858154297,1.6474584341049194,0.3113660514354706
1729114753520561400,43.7765615234375,10.52363395690918,1.5469598770141602,-0.4450650215148926
1729114753558496000,43.81449609375,9.99691390991211,3.0933215618133545,0.9194421172142029
1729114753596430300,43.85243041992187,8.373981475830078,1.1135598421096802,-0.3445664644241333
1729114753634365000,43.890364990234374,13.104592323303223,0.8045865893363953,0.6753742098808289
1729114753672299300,43.92829931640625,5.127519607543945,2.0976080894470215,0.16301104426383972
1729114753710233900,43.96623388671875,11.898011207580566,0.8476574420928955,0.2515454888343811
1729114753748168200,44.004168212890626,10.401599884033203,0.8333004713058472,0.17736798524856567
1729114753786102800,44.04210278320313,8.151150703430176,1.2475578784942627,0.43100717663764954
1729114753824037000,44.080037109375,11.720643043518066,0.057726845145225525,0.6678966283798218
1729114753861971700,44.1179716796875,11.162817001342773,0.01704886183142662,0.3640081584453583
1729114753899906000,44.15590600585937,8.775976181030273,0.09361918270587921,-0.062213387340307236
1729114753937840600,44.19384057617187,8.639585494995117,0.859621524810791,0.20368902385234833
1729114753975775000,44.23177490234375,10.059426307678223,0.16779668629169464,0.5123631358146667
1729114754013709600,44.26970947265625,8.737690925598145,0.14386846125125885,0.15104693174362183
1729114754051644000,44.307643798828124,8.76640510559082,0.3161516785621643,0.03349951654672623
1729114754089578200,44.345578125,10.990533828735352,0.13190434873104095,0.8045865893363953
1729114754127512800,44.38351293945313,6.657131671905518,0.857228696346283,1.3671990633010864
1729114754165447200,44.421447265625,10.238887786865234,-0.42831525206565857,0.17497515678405762
1729114754203381800,44.4593818359375,9.970592498779297,-0.23449662327766418,0.5650052428245544
1729114754241316000,44.49731616210938,12.764512062072754,-0.275174617767334,0.031106693670153618
1729114754279250700,44.53525073242187,9.384052276611328,0.3233301639556885,1.446162223815918
1729114754317185000,44.57318505859375,8.09850788116455,0.2922234535217285,0.21804596483707428
1729114754355119600,44.61111962890625,7.828119277954102,-0.7154539823532104,0.26111677289009094
1729114754393054000,44.649053955078124,14.974284172058105,-0.3158525824546814,0.1941177397966385
1729114754430988500,44.686988525390625,9.19023323059082,0.014656038954854012,0.5099703073501587
1729114754468923000,44.7249228515625,7.464111328125,0.06251249462366104,0.13190434873104095
1729114754506857500,44.762857421875,10.600204467773438,-0.04755735024809837,0.6511468887329102
1729114754544791800,44.800791748046876,8.301898002624512,-0.133698970079422,0.4501497745513916
1729114754582726100,44.83872607421875,13.734203338623047,-0.8306085467338562,0.8715856671333313
1729114754620660700,44.87666064453125,6.8033928871154785,-0.9287142753601074,-0.6798607110977173
1729114754658595000,44.91459497070313,12.26650619506836,-0.014057832770049572,0.0526420995593071
1729114754696529700,44.95252978515625,10.423135757446289,-0.21266211569309235,-0.4621138870716095
1729114754734464000,44.99046411132812,8.515158653259277,0.2587239444255829,-0.5721837282180786
1729114754772398600,45.028398681640624,9.034700393676758,-0.133698970079422,-1.3621143102645874
1729114754810333000,45.0663330078125,11.126924514770508,-1.2541381120681763,-1.1443674564361572
1729114754848267500,45.104267578125,8.917152404785156,-0.045164529234170914,-0.8282157182693481
1729114754886201900,45.142201904296876,6.092126369476318,0.49591249227523804,-1.3812568187713623
1729114754924136400,45.18013647460938,10.775179862976074,-2.195115566253662,-1.927119493484497
1729114754962070800,45.21807080078125,10.561919212341309,-0.6771687865257263,-2.089831590652466
1729114755000005400,45.25600537109375,10.310672760009766,-0.11934202909469604,-1.690230131149292
1729114755037939700,45.29393969726563,8.792725563049316,-0.16002000868320465,-2.9374887943267822
1729114755075874300,45.33187426757812,9.297910690307617,-0.8066803216934204,-2.5567309856414795
1729114755113808600,45.36980859375,10.506884574890137,-0.9071788787841797,-2.1403799057006836
1729114755151743000,45.40774291992187,10.155138969421387,-0.5168496966362,-2.6117658615112305
1729114755189677600,45.445677490234374,9.556634902954102,-0.8018946647644043,-2.825026273727417
1729114755227612000,45.48361181640625,12.76929759979248,-0.47617170214653015,-1.3884353637695312
1729114755265546500,45.52154638671875,6.499205589294434,0.04576273262500763,-2.520838737487793
1729114755303480800,45.559480712890625,11.89322566986084,-0.4426721930503845,-2.037189483642578
1729114755341415400,45.59741552734375,8.469695091247559,-0.03798605874180794,-2.9853453636169434
1729114755379349800,45.63534985351563,10.100104331970215,-0.8042874932289124,-2.106581211090088
1729114755417284400,45.67328442382812,9.384052276611328,1.053739309310913,-1.9175482988357544
1729114755455218700,45.71121875,12.067901611328125,-0.27756741642951965,-2.2360928058624268
1729114755493153300,45.7491533203125,4.026223182678223,1.561316728591919,-2.2432711124420166
1729114755531087600,45.78708764648437,11.90040397644043,-0.49292147159576416,-1.927119493484497
1729114755569022200,45.825022216796874,11.35214900970459,-0.7106683254241943,-1.3884353637695312
1729114755606956500,45.86295654296875,9.218947410583496,0.0768694281578064,-1.4602199792861938
1729114755644891100,45.90089111328125,7.701000690460205,1.8867406845092773,-0.9646066427230835
1729114755682825500,45.938825439453126,11.605788230895996,-0.05234299600124359,-1.6040884256362915
1729114755720759800,45.976759765625,11.378469467163086,0.47916272282600403,-0.8210372924804688
1729114755758694400,46.0146943359375,6.956533432006836,-0.08344969153404236,-1.592124342918396
1729114755796628700,46.05262866210938,10.380064964294434,1.0872387886047363,1.6878372430801392
1729114755834563300,46.09056323242187,14.174781799316406,-0.5623133182525635,2.6647071838378906
1729114755872497700,46.12849755859375,11.016854286193848,0.23001007735729218,-0.24646073579788208
1729114755910432300,46.166432373046874,9.503992080688477,1.0154540538787842,-0.5291129350662231
1729114755948366600,46.20436669921875,7.818548202514648,0.5605186820030212,0.4668995141983032
1729114755986301200,46.24230126953125,11.263614654541016,-0.37088751792907715,-0.4573282301425934
1729114756024235500,46.280235595703125,5.687739372253418,0.2754737138748169,-0.4331009089946747
1729114756062170000,46.318170166015626,11.78554916381836,0.13668999075889587,-0.07417750358581543
1729114756100104400,46.3561044921875,10.039984703063965,-0.3158525824546814,0.6631109714508057
1729114756138039000,46.3940390625,10.210174560546875,0.09601201117038727,-0.7253243923187256
1729114756175973400,46.43197338867188,7.236494064331055,0.057726845145225525,-0.3038884699344635
1729114756213907700,46.46990771484375,9.961021423339844,-0.5934200286865234,-0.8066803216934204
1729114756251842300,46.50784228515625,12.161222457885742,0.2587239444255829,0.6224330067634583
1729114756289776600,46.54577661132812,9.087342262268066,0.15583257377147675,-0.490827739238739
1729114756327711200,46.58371118164062,10.928319931030273,0.06251249462366104,-0.9478568434715271
1729114756365645600,46.6216455078125,10.171889305114746,-0.3445664644241333,0.17258232831954956
1729114756403580200,46.659580078125,8.050651550292969,0.828514814376831,-0.6966105103492737
1729114756441514500,46.697514404296875,7.430611610412598,0.3041875660419464,-1.3621143102645874
1729114756479449000,46.735448974609376,14.768501281738281,-0.7154539823532104,-0.04785645380616188
1729114756517383400,46.77338354492188,10.451848983764648,-0.4977070987224579,0.6487540602684021
1729114756555318000,46.81131811523438,4.916652202606201,0.9963115453720093,-0.16271193325519562
1729114756593252400,46.84925244140625,12.917952537536621,-1.1225329637527466,-0.3206382393836975
1729114756631187000,46.88718701171875,7.3899335861206055,-0.6580262184143066,0.23958136141300201
1729114756669121300,46.92512133789062,6.606882572174072,0.4097708761692047,0.2874378263950348
1729114756707055900,46.963055908203124,11.69432258605957,-0.8473583459854126,1.0965110063552856
1729114756744990200,47.000990234375,10.28195858001709,0.2946162819862366,-0.14835500717163086
1729114756782924800,47.0389248046875,9.822237968444824,-1.0172487497329712,-0.5362913608551025
1729114756820859100,47.076859130859376,10.763215065002441,0.47676992416381836,1.3265210390090942
1729114756858793700,47.11479370117188,9.132805824279785,0.5030909776687622,0.9314061999320984
1729114756896728000,47.15272802734375,13.506885528564453,-0.976570725440979,1.1563315391540527
1729114756934662400,47.19066235351563,7.667500972747803,-0.5647061467170715,1.690230131149292
1729114756972597000,47.22859692382813,9.539884567260742,0.10797612369060516,0.9912267923355103
1729114757010531300,47.26653125,9.587740898132324,-0.7995018362998962,0.802193820476532
1729114757048466000,47.3044658203125,9.76241683959961,-0.4905286431312561,1.5490535497665405
1729114757086400300,47.34240014648437,11.35214900970459,-0.38285163044929504,1.1228320598602295
1729114757124334800,47.3803349609375,8.752047538757324,1.0369895696640015,2.1547367572784424
1729114757162269200,47.418269287109375,11.495718002319336,0.03858426585793495,0.5458626747131348
