time,seconds_elapsed,z,y,x
1729114988011863000,0.089863037109375,9.937093734741211,-0.07148557901382446,-0.14356936514377594
1729114988049797600,0.127797607421875,9.836594581604004,-0.07866404205560684,-0.1818545162677765
1729114988087732200,0.165732177734375,9.932307243347168,-0.10737791657447815,-0.1579262912273407
1729114988125666600,0.20366650390625,9.860523223876953,-0.08823533356189728,-0.16510476171970367
1729114988163601200,0.24160107421875,9.925128936767578,-0.09062815457582474,-0.1579262912273407
1729114988201535700,0.27953564453125,9.891630172729492,-0.06669992953538895,-0.1579262912273407
1729114988239470300,0.31747021484375,9.915557861328125,-0.0810568705201149,-0.15553347766399384
1729114988277405000,0.355405029296875,9.889236450195312,-0.08823533356189728,-0.16031911969184875
1729114988315339500,0.393339599609375,9.898808479309082,-0.09541380405426025,-0.1579262912273407
1729114988353274000,0.431274169921875,9.889236450195312,-0.07627122104167938,-0.15553347766399384
1729114988391208400,0.46920849609375,9.889236450195312,-0.08344969153404236,-0.1579262912273407
1729114988429143000,0.50714306640625,9.898808479309082,-0.0930209830403328,-0.16031911969184875
1729114988467077600,0.54507763671875,9.898808479309082,-0.08344969153404236,-0.15074782073497772
1729114988505012200,0.58301220703125,9.891630172729492,-0.0690927505493164,-0.16271193325519562
1729114988542946800,0.62094677734375,9.889236450195312,-0.09062815457582474,-0.16510476171970367
1729114988580881400,0.65888134765625,9.898808479309082,-0.08823533356189728,-0.16271193325519562
1729114988618816000,0.69681591796875,9.894022941589355,-0.08823533356189728,-0.15553347766399384
1729114988656750300,0.734750244140625,9.894022941589355,-0.0810568705201149,-0.16749759018421173
1729114988694685000,0.772684814453125,9.905986785888672,-0.0810568705201149,-0.15553347766399384
1729114988732619500,0.81061962890625,9.910772323608398,-0.09062815457582474,-0.1698904037475586
1729114988770554000,0.84855419921875,9.903594017028809,-0.0930209830403328,-0.16271193325519562
1729114988808488700,0.88648876953125,9.903594017028809,-0.0810568705201149,-0.1459621787071228
1729114988846423300,0.92442333984375,9.894022941589355,-0.08584251254796982,-0.1698904037475586
1729114988884358000,0.96235791015625,9.901201248168945,-0.0810568705201149,-0.15314064919948578
1729114988922292500,1.00029248046875,9.905986785888672,-0.08823533356189728,-0.16749759018421173
1729114988960226800,1.038226806640625,9.896415710449219,-0.0810568705201149,-0.1579262912273407
1729114988998161400,1.076161376953125,9.889236450195312,-0.08584251254796982,-0.15553347766399384
1729114989036096000,1.114095947265625,9.896415710449219,-0.0930209830403328,-0.16510476171970367
1729114989074030600,1.152030517578125,9.894022941589355,-0.08823533356189728,-0.16031911969184875
1729114989111965200,1.189965087890625,9.898808479309082,-0.0810568705201149,-0.15314064919948578
1729114989149899800,1.227899658203125,9.898808479309082,-0.07148557901382446,-0.1579262912273407
1729114989187834400,1.26583447265625,9.889236450195312,-0.0810568705201149,-0.15553347766399384
1729114989225769000,1.30376904296875,9.898808479309082,-0.08584251254796982,-0.1698904037475586
1729114989263703300,1.341703369140625,9.889236450195312,-0.08584251254796982,-0.1579262912273407
1729114989301638000,1.379637939453125,9.884450912475586,-0.09541380405426025,-0.15553347766399384
1729114989339572500,1.417572509765625,9.889236450195312,-0.09062815457582474,-0.14835500717163086
1729114989377507000,1.455507080078125,9.891630172729492,-0.07627122104167938,-0.14835500717163086
1729114989415441700,1.493441650390625,9.894022941589355,-0.07866404205560684,-0.16031911969184875
1729114989453376300,1.531376220703125,9.894022941589355,-0.07627122104167938,-0.14835500717163086
1729114989491310800,1.569310791015625,9.894022941589355,-0.08823533356189728,-0.15314064919948578
1729114989529245200,1.6072451171875,9.894022941589355,-0.08584251254796982,-0.15553347766399384
1729114989567179800,1.6451796875,9.901201248168945,-0.09062815457582474,-0.1579262912273407
1729114989605114400,1.6831142578125,9.894022941589355,-0.07866404205560684,-0.1746760457754135
1729114989643049000,1.721049072265625,9.898808479309082,-0.08584251254796982,-0.15553347766399384
1729114989680983600,1.758983642578125,9.889236450195312,-0.08584251254796982,-0.16510476171970367
1729114989718918100,1.796918212890625,9.905986785888672,-0.08823533356189728,-0.15074782073497772
1729114989756852700,1.834852783203125,9.87966537475586,-0.07627122104167938,-0.17228323221206665
1729114989794787300,1.872787353515625,9.908379554748535,-0.08344969153404236,-0.16510476171970367
1729114989832722000,1.910721923828125,9.905986785888672,-0.08823533356189728,-0.1698904037475586
1729114989870656300,1.94865625,9.901201248168945,-0.09780662506818771,-0.16510476171970367
1729114989908590800,1.9865908203125,9.894022941589355,-0.09062815457582474,-0.16749759018421173
1729114989946525400,2.024525390625,9.898808479309082,-0.07866404205560684,-0.14835500717163086
1729114989984460000,2.0624599609375,9.898808479309082,-0.08344969153404236,-0.1698904037475586
1729114990022394600,2.10039453125,9.903594017028809,-0.07866404205560684,-0.15314064919948578
1729114990060329200,2.1383291015625,9.87966537475586,-0.10019944608211517,-0.16749759018421173
1729114990098263800,2.176263916015625,9.903594017028809,-0.07866404205560684,-0.16031911969184875
1729114990136198100,2.2141982421875,9.874879837036133,-0.10019944608211517,-0.1698904037475586
1729114990174132700,2.2521328125,9.903594017028809,-0.09062815457582474,-0.16031911969184875
1729114990212067300,2.2900673828125,9.898808479309082,-0.07387840002775192,-0.14117653667926788
1729114990250002000,2.328001953125,9.896415710449219,-0.07627122104167938,-0.15553347766399384
1729114990287936500,2.3659365234375,9.88684368133545,-0.07627122104167938,-0.1579262912273407
1729114990325871000,2.40387109375,9.889236450195312,-0.08344969153404236,-0.16510476171970367
1729114990363805700,2.4418056640625,9.894022941589355,-0.07627122104167938,-0.1459621787071228
1729114990401740300,2.479740234375,9.891630172729492,-0.08344969153404236,-0.15553347766399384
1729114990439675000,2.5176748046875,9.891630172729492,-0.09780662506818771,-0.1459621787071228
1729114990477609500,2.555609375,9.903594017028809,-0.0810568705201149,-0.16749759018421173
1729114990515543800,2.593543701171875,9.898808479309082,-0.08344969153404236,-0.16271193325519562
1729114990553478400,2.631478515625,9.913165092468262,-0.08823533356189728,-0.15074782073497772
1729114990591413000,2.6694130859375,9.901201248168945,-0.0930209830403328,-0.17228323221206665
1729114990629347600,2.70734765625,9.901201248168945,-0.08344969153404236,-0.1579262912273407
1729114990667282200,2.7452822265625,9.896415710449219,-0.08344969153404236,-0.1579262912273407
1729114990705216800,2.783216796875,9.901201248168945,-0.08823533356189728,-0.16271193325519562
1729114990743151400,2.8211513671875,9.884450912475586,-0.0810568705201149,-0.15553347766399384
1729114990781086000,2.8590859375,9.901201248168945,-0.08344969153404236,-0.1579262912273407
1729114990819020300,2.897020263671875,9.889236450195312,-0.07866404205560684,-0.15314064919948578
1729114990856955000,2.934954833984375,9.898808479309082,-0.0930209830403328,-0.15074782073497772
1729114990894889500,2.972889404296875,9.901201248168945,-0.09062815457582474,-0.16031911969184875
1729114990932824000,3.010823974609375,9.898808479309082,-0.08584251254796982,-0.15314064919948578
1729114990970758700,3.048758544921875,9.901201248168945,-0.08823533356189728,-0.1698904037475586
1729114991008693200,3.086693359375,9.898808479309082,-0.08344969153404236,-0.15074782073497772
1729114991046627800,3.1246279296875,9.905986785888672,-0.0810568705201149,-0.1579262912273407
1729114991084562400,3.1625625,9.884450912475586,-0.08584251254796982,-0.16510476171970367
1729114991122497000,3.2004970703125,9.905986785888672,-0.0930209830403328,-0.17228323221206665
1729114991160431600,3.238431640625,9.884450912475586,-0.08823533356189728,-0.15074782073497772
1729114991198366000,3.276365966796875,9.898808479309082,-0.08823533356189728,-0.15314064919948578
1729114991236300500,3.314300537109375,9.908379554748535,-0.08584251254796982,-0.16031911969184875
1729114991274235100,3.352235107421875,9.889236450195312,-0.08823533356189728,-0.16031911969184875
1729114991312169700,3.390169677734375,9.901201248168945,-0.07866404205560684,-0.15553347766399384
1729114991350104300,3.428104248046875,9.901201248168945,-0.08823533356189728,-0.1579262912273407
1729114991388039000,3.466038818359375,9.894022941589355,-0.08823533356189728,-0.15074782073497772
1729114991425973500,3.503973388671875,9.910772323608398,-0.09062815457582474,-0.14835500717163086
1729114991463908000,3.541908203125,9.901201248168945,-0.08823533356189728,-0.15553347766399384
1729114991501842700,3.5798427734375,9.901201248168945,-0.09541380405426025,-0.16031911969184875
1729114991539777000,3.617777099609375,9.894022941589355,-0.07627122104167938,-0.16749759018421173
1729114991577711600,3.655711669921875,9.908379554748535,-0.0930209830403328,-0.16031911969184875
1729114991615646200,3.693646240234375,9.88684368133545,-0.0810568705201149,-0.16031911969184875
1729114991653580800,3.731580810546875,9.882058143615723,-0.07627122104167938,-0.14835500717163086
1729114991691515400,3.769515380859375,9.901201248168945,-0.08584251254796982,-0.14835500717163086
1729114991729450000,3.807449951171875,9.896415710449219,-0.09062815457582474,-0.1579262912273407
1729114991767384600,3.845384521484375,9.903594017028809,-0.0810568705201149,-0.15074782073497772
1729114991805319200,3.883319091796875,9.88684368133545,-0.08823533356189728,-0.16031911969184875
1729114991843253500,3.92125341796875,9.901201248168945,-0.08584251254796982,-0.17228323221206665
1729114991881188000,3.95918798828125,9.898808479309082,-0.08823533356189728,-0.1579262912273407
1729114991919122700,3.997122802734375,9.896415710449219,-0.08344969153404236,-0.16031911969184875
1729114991957057300,4.035057373046875,9.894022941589355,-0.0810568705201149,-0.16271193325519562
1729114991994991900,4.072991943359375,9.882058143615723,-0.08823533356189728,-0.15074782073497772
1729114992032926500,4.110926513671875,9.905986785888672,-0.08823533356189728,-0.15553347766399384
1729114992070861000,4.148861083984375,9.87966537475586,-0.09062815457582474,-0.1579262912273407
1729114992108795600,4.186795654296875,9.913165092468262,-0.0810568705201149,-0.16271193325519562
1729114992146730200,4.224730224609375,9.889236450195312,-0.07866404205560684,-0.16031911969184875
1729114992184664800,4.262664794921875,9.908379554748535,-0.09541380405426025,-0.16271193325519562
1729114992222599400,4.300599365234375,9.896415710449219,-0.08823533356189728,-0.16271193325519562
1729114992260533800,4.33853369140625,9.891630172729492,-0.08823533356189728,-0.1579262912273407
1729114992298468400,4.37646826171875,9.913165092468262,-0.09541380405426025,-0.16271193325519562
1729114992336403000,4.41440283203125,9.901201248168945,-0.08584251254796982,-0.15553347766399384
1729114992374337500,4.452337646484375,9.896415710449219,-0.07387840002775192,-0.1579262912273407
1729114992412272000,4.490272216796875,9.896415710449219,-0.08344969153404236,-0.15314064919948578
1729114992450206700,4.528206787109375,9.894022941589355,-0.08823533356189728,-0.16031911969184875
1729114992488141300,4.566141357421875,9.905986785888672,-0.08584251254796982,-0.16749759018421173
1729114992526076000,4.604075927734375,9.894022941589355,-0.09062815457582474,-0.17228323221206665
1729114992564010500,4.642010498046875,9.898808479309082,-0.08823533356189728,-0.16031911969184875
1729114992601945000,4.679945068359375,9.903594017028809,-0.07627122104167938,-0.15314064919948578
1729114992639879400,4.71787939453125,9.88684368133545,-0.08584251254796982,-0.1579262912273407
1729114992677814000,4.75581396484375,9.894022941589355,-0.07866404205560684,-0.15074782073497772
1729114992715748600,4.79374853515625,9.905986785888672,-0.09062815457582474,-0.17228323221206665
1729114992753683200,4.83168310546875,9.898808479309082,-0.08823533356189728,-0.16510476171970367
1729114992791617800,4.86961767578125,9.905986785888672,-0.08584251254796982,-0.15553347766399384
1729114992829552400,4.907552490234375,9.891630172729492,-0.08344969153404236,-0.16749759018421173
1729114992867487000,4.945487060546875,9.917950630187988,-0.09062815457582474,-0.16749759018421173
1729114992905421600,4.983421630859375,9.884450912475586,-0.0930209830403328,-0.1746760457754135
1729114992943356200,5.021356201171875,9.901201248168945,-0.09780662506818771,-0.15553347766399384
1729114992981290800,5.059290771484375,9.901201248168945,-0.08584251254796982,-0.16031911969184875
1729114993019225000,5.09722509765625,9.894022941589355,-0.07627122104167938,-0.16031911969184875
1729114993057159700,5.13515966796875,9.901201248168945,-0.09541380405426025,-0.15553347766399384
1729114993095094300,5.17309423828125,9.896415710449219,-0.08823533356189728,-0.1698904037475586
1729114993133028900,5.21102880859375,9.901201248168945,-0.09062815457582474,-0.14356936514377594
1729114993170963500,5.24896337890625,9.901201248168945,-0.09062815457582474,-0.15553347766399384
1729114993208898000,5.28689794921875,9.903594017028809,-0.09062815457582474,-0.16749759018421173
1729114993246832600,5.32483251953125,9.896415710449219,-0.08344969153404236,-0.15314064919948578
1729114993284767200,5.362767333984375,9.901201248168945,-0.08823533356189728,-0.17228323221206665
1729114993322701800,5.400701904296875,9.896415710449219,-0.08823533356189728,-0.16271193325519562
1729114993360636400,5.438636474609375,9.898808479309082,-0.09780662506818771,-0.16749759018421173
1729114993398570800,5.47657080078125,9.88684368133545,-0.08344969153404236,-0.15074782073497772
1729114993436505300,5.51450537109375,9.894022941589355,-0.0930209830403328,-0.1746760457754135
1729114993474440000,5.55243994140625,9.908379554748535,-0.09062815457582474,-0.16031911969184875
1729114993512374500,5.59037451171875,9.901201248168945,-0.0930209830403328,-0.16749759018421173
1729114993550309000,5.62830908203125,9.901201248168945,-0.08344969153404236,-0.16271193325519562
1729114993588243700,5.66624365234375,9.894022941589355,-0.0810568705201149,-0.17228323221206665
1729114993626178300,5.70417822265625,9.903594017028809,-0.0810568705201149,-0.15314064919948578
1729114993664113000,5.74211279296875,9.891630172729492,-0.09062815457582474,-0.16271193325519562
1729114993702047500,5.780047607421875,9.884450912475586,-0.08823533356189728,-0.16031911969184875
1729114993739982000,5.817982177734375,9.901201248168945,-0.08823533356189728,-0.1579262912273407
1729114993777916700,5.855916748046875,9.905986785888672,-0.0810568705201149,-0.16510476171970367
1729114993815851000,5.89385107421875,9.898808479309082,-0.0930209830403328,-0.15553347766399384
1729114993853785600,5.93178564453125,9.903594017028809,-0.08584251254796982,-0.16271193325519562
1729114993891720200,5.96972021484375,9.896415710449219,-0.07866404205560684,-0.16031911969184875
1729114993929654800,6.00765478515625,9.896415710449219,-0.07866404205560684,-0.15553347766399384
1729114993967589400,6.04558935546875,9.908379554748535,-0.08344969153404236,-0.16271193325519562
1729114994005524000,6.08352392578125,9.903594017028809,-0.0930209830403328,-0.1579262912273407
1729114994043458600,6.12145849609375,9.894022941589355,-0.08823533356189728,-0.14835500717163086
1729114994081393200,6.15939306640625,9.894022941589355,-0.07866404205560684,-0.1459621787071228
1729114994119327700,6.19732763671875,9.896415710449219,-0.08344969153404236,-0.1579262912273407
1729114994157262300,6.235262451171875,9.905986785888672,-0.0810568705201149,-0.16031911969184875
1729114994195197000,6.273197021484375,9.894022941589355,-0.09062815457582474,-0.16031911969184875
1729114994233131300,6.31113134765625,9.905986785888672,-0.09062815457582474,-0.17228323221206665
1729114994271065900,6.34906591796875,9.896415710449219,-0.0810568705201149,-0.1579262912273407
1729114994309000400,6.38700048828125,9.905986785888672,-0.07866404205560684,-0.15074782073497772
1729114994346935000,6.42493505859375,9.889236450195312,-0.08823533356189728,-0.1579262912273407
1729114994384869600,6.46286962890625,9.898808479309082,-0.07866404205560684,-0.15314064919948578
1729114994422804200,6.50080419921875,9.884450912475586,-0.07866404205560684,-0.1698904037475586
1729114994460738800,6.53873876953125,9.905986785888672,-0.09062815457582474,-0.15314064919948578
1729114994498673400,6.57667333984375,9.894022941589355,-0.09062815457582474,-0.1579262912273407
1729114994536608000,6.61460791015625,9.901201248168945,-0.08584251254796982,-0.15314064919948578
1729114994574542600,6.65254248046875,9.903594017028809,-0.0930209830403328,-0.15553347766399384
1729114994612477200,6.690477294921875,9.889236450195312,-0.08823533356189728,-0.15553347766399384
1729114994650411800,6.728411865234375,9.905986785888672,-0.08584251254796982,-0.1579262912273407
1729114994688346000,6.76634619140625,9.891630172729492,-0.09541380405426025,-0.16510476171970367
1729114994726280700,6.80428076171875,9.908379554748535,-0.08823533356189728,-0.15074782073497772
1729114994764215300,6.84221533203125,9.889236450195312,-0.08584251254796982,-0.16510476171970367
1729114994802150000,6.88014990234375,9.901201248168945,-0.0810568705201149,-0.16031911969184875
1729114994840084500,6.91808447265625,9.891630172729492,-0.07866404205560684,-0.14835500717163086
1729114994878019000,6.95601904296875,9.908379554748535,-0.08344969153404236,-0.1579262912273407
1729114994915953700,6.99395361328125,9.898808479309082,-0.08823533356189728,-0.16031911969184875
1729114994953888300,7.03188818359375,9.905986785888672,-0.08584251254796982,-0.16510476171970367
1729114994991822800,7.06982275390625,9.889236450195312,-0.08823533356189728,-0.15553347766399384
1729114995029757400,7.10775732421875,9.910772323608398,-0.0810568705201149,-0.16271193325519562
1729114995067692000,7.145692138671875,9.889236450195312,-0.08584251254796982,-0.16510476171970367
1729114995105626400,7.18362646484375,9.898808479309082,-0.0810568705201149,-0.1459621787071228
1729114995143561000,7.22156103515625,9.894022941589355,-0.08584251254796982,-0.17946170270442963
1729114995181495600,7.25949560546875,9.894022941589355,-0.07627122104167938,-0.15074782073497772
1729114995219430100,7.29743017578125,9.901201248168945,-0.08344969153404236,-0.14117653667926788
1729114995257364700,7.33536474609375,9.896415710449219,-0.08823533356189728,-0.16510476171970367
1729114995295299300,7.37329931640625,9.901201248168945,-0.08823533356189728,-0.16271193325519562
1729114995333234000,7.41123388671875,9.884450912475586,-0.06669992953538895,-0.16271193325519562
1729114995371168500,7.44916845703125,9.905986785888672,-0.09541380405426025,-0.16510476171970367
1729114995409103000,7.48710302734375,9.898808479309082,-0.08344969153404236,-0.1459621787071228
1729114995447037700,7.52503759765625,9.901201248168945,-0.09062815457582474,-0.16749759018421173
1729114995484972300,7.56297216796875,9.898808479309082,-0.0810568705201149,-0.1579262912273407
1729114995522907000,7.600906982421875,9.896415710449219,-0.08344969153404236,-0.1459621787071228
1729114995560841500,7.638841552734375,9.901201248168945,-0.07627122104167938,-0.16510476171970367
1729114995598776000,7.676776123046875,9.901201248168945,-0.07866404205560684,-0.15074782073497772
1729114995636710400,7.71471044921875,9.898808479309082,-0.08344969153404236,-0.16510476171970367
1729114995674645000,7.75264501953125,9.889236450195312,-0.07627122104167938,-0.1579262912273407
1729114995712579600,7.79057958984375,9.913165092468262,-0.09541380405426025,-0.15314064919948578
1729114995750514200,7.82851416015625,9.882058143615723,-0.0930209830403328,-0.15553347766399384
1729114995788448800,7.86644873046875,9.913165092468262,-0.08584251254796982,-0.1698904037475586
1729114995826383400,7.90438330078125,9.953843116760254,-0.04995017126202583,-0.20099709928035736
1729114995864318000,7.94231787109375,9.910772323608398,0.36670008301734924,-0.26560330390930176
1729114995902252500,7.98025244140625,9.999306678771973,0.7543373107910156,-0.21296121180057526
1729114995940187100,8.018187255859376,9.975378036499023,1.1662019491195679,-0.21296121180057526
1729114995978121700,8.056121826171875,9.980164527893066,1.3863415718078613,-0.3900300860404968
1729114996016056300,8.094056396484374,9.920343399047852,1.4437693357467651,-0.7301099896430969
1729114996053991000,8.131990966796875,9.870094299316406,1.5589239597320557,-0.4980062246322632
1729114996091925500,8.169925537109375,9.870094299316406,1.4799607992172241,-0.2512463629245758
1729114996129860000,8.207860107421874,10.032806396484375,1.285843014717102,-0.33499518036842346
1729114996167794400,8.24579443359375,10.162318229675293,1.0944172143936157,-0.646361231803894
1729114996205729000,8.28372900390625,9.786345481872559,1.139880895614624,-0.8066803216934204
1729114996243663600,8.32166357421875,10.760822296142578,0.47198426723480225,-0.38285163044929504
1729114996281598200,8.35959814453125,9.467801094055176,0.7543373107910156,-0.7372884750366211
1729114996319532800,8.39753271484375,10.195816993713379,0.617946445941925,-0.8497511148452759
1729114996357467400,8.43546728515625,9.704989433288574,0.8691928386688232,-1.5080764293670654
1729114996395402000,8.473402099609375,10.454241752624512,0.48873403668403625,-0.7540382146835327
1729114996433336600,8.511336669921874,8.294719696044922,0.7136593461036682,-1.5200406312942505
1729114996471271200,8.549271240234376,8.854939460754395,1.534995675086975,-0.5602195858955383
1729114996509205800,8.587205810546875,12.075079917907715,1.2188440561294556,-0.4211367964744568
1729114996547140400,8.625140380859374,8.313861846923828,1.511067509651184,-0.9861420392990112
1729114996585075000,8.663074951171875,13.971392631530762,0.9508479237556458,-0.6607181429862976
1729114996623009500,8.701009521484375,11.201400756835938,0.6323033571243286,-0.6583253145217896
1729114996660944000,8.73894384765625,12.13490104675293,2.061715841293335,0.16540385782718658
1729114996698878500,8.77687841796875,9.139984130859375,1.4991034269332886,-1.4913266897201538
1729114996736813000,8.81481298828125,13.791631698608398,1.108774185180664,0.007178467698395252
1729114996774747600,8.85274755859375,10.219745635986328,1.8771693706512451,-0.6487540602684021
1729114996812682200,8.89068212890625,10.29153060913086,1.8867406845092773,-0.4307080805301666
1729114996850616800,8.928616943359375,10.403992652893066,1.9824535846710205,0.14386846125125885
1729114996888551400,8.966551513671876,9.920343399047852,1.9992033243179321,-0.4163511395454407
1729114996926486000,9.004486083984375,10.610074996948242,1.4365909099578857,-1.0028917789459229
1729114996964420600,9.042420654296874,11.440683364868164,1.8245272636413574,0.8333004713058472
1729114997002355200,9.080355224609375,10.698609352111816,1.5302101373672485,-0.5051847100257874
1729114997040289800,9.118289794921875,10.116853713989258,0.4456632137298584,-0.42831525206565857
1729114997078224400,9.156224365234374,6.118746757507324,0.8165507316589355,0.2826521694660187
1729114997116159000,9.194158935546875,10.336994171142578,0.39062830805778503,-0.380458801984787
1729114997154093600,9.232093505859375,10.231709480285645,0.8548358678817749,-0.0526420995593071
1729114997192028000,9.27002783203125,10.985748291015625,0.9460622668266296,1.8269200325012207
1729114997229962500,9.30796240234375,7.116852760314941,0.3281157910823822,0.035892341285943985
1729114997267897000,9.34589697265625,13.667204856872559,-1.215852975845337,1.2329018115997314
1729114997305831700,9.383831787109376,6.0849480628967285,-0.13609178364276886,1.6663018465042114
1729114997343766300,9.421766357421875,9.128020286560059,-0.8042874932289124,1.1515458822250366
1729114997381700900,9.459700927734374,9.568598747253418,-1.1321041584014893,2.8704898357391357
1729114997419635500,9.497635498046876,7.3660054206848145,-0.3756731450557709,0.8691928386688232
1729114997457570000,9.535570068359375,11.409576416015625,-0.576670229434967,2.3584258556365967
1729114997495504600,9.573504638671874,12.379267692565918,0.11276176571846008,2.463710069656372
1729114997533439200,9.611439208984375,10.219745635986328,-0.3613162338733673,2.449352979660034
1729114997571373800,9.649373779296875,8.191828727722168,-0.48813581466674805,2.094916343688965
1729114997609308400,9.687308349609374,12.063116073608398,-1.7784653902053833,1.7309080362319946
1729114997647243000,9.725242919921875,11.055139541625977,1.0920244455337524,1.5801602602005005
1729114997685177600,9.763177490234375,4.088436603546143,1.1494522094726562,1.8867406845092773
1729114997723112200,9.8011123046875,13.509278297424316,-0.698704183101654,4.685445785522461
1729114997761046500,9.839046630859375,10.535597801208496,-0.00687936507165432,3.7899320125579834
1729114997798981000,9.876981201171875,4.133900165557861,0.9556335210800171,1.4653047323226929
1729114997836915700,9.914915771484376,13.128520965576172,-0.35413774847984314,2.7269206047058105
1729114997874850300,9.952850341796875,7.868797302246094,0.2946162819862366,2.0829520225524902
1729114997912785000,9.990784912109374,10.806285858154297,0.9005986452102661,0.8333004713058472
1729114997950719500,10.028719482421875,10.753643989562988,0.1414756327867508,0.5650052428245544
1729114997988654000,10.066654052734375,10.959426879882812,0.17258232831954956,0.579362154006958
1729114998026588700,10.104588623046874,6.556632995605469,0.6442674994468689,0.45972105860710144
1729114998064523300,10.142523193359375,9.805487632751465,-0.8617152571678162,0.4166502356529236
1729114998102457900,10.180457763671875,10.71535873413086,-0.25363919138908386,0.6825526356697083
1729114998140392400,10.218392333984376,9.10409164428711,0.44805604219436646,1.2786645889282227
1729114998178327000,10.2563271484375,12.491730690002441,-0.9550353288650513,0.8668000102043152
1729114998216261600,10.29426171875,9.264410972595215,-0.06191428750753403,-1.4745769500732422
1729114998254196200,10.3321962890625,7.2798638343811035,-0.8449655175209045,-1.8505492210388184
1729114998292130800,10.370130859375,9.939486503601074,-0.760917603969574,-0.5434698462486267
1729114998330065400,10.4080654296875,6.264708995819092,-0.6245267391204834,-0.521934449672699
1729114998368000000,10.446,13.06391429901123,-1.0268200635910034,0.10767702013254166
1729114998405934300,10.483934326171875,7.004390239715576,-0.06430710852146149,-0.9957132935523987
1729114998443869000,10.521868896484374,11.696715354919434,-0.23449662327766418,-0.2584248483181
1729114998481803500,10.559803466796875,10.878070831298828,1.5996019840240479,-0.732502818107605
1729114998519738000,10.597738037109375,10.092926025390625,0.5964110493659973,-1.7548363208770752
1729114998557672700,10.635672607421874,9.185447692871094,-0.8162516355514526,-1.8529419898986816
1729114998595607300,10.673607177734375,7.9860453605651855,-0.8138588070869446,-1.3836497068405151
1729114998633542000,10.7115419921875,11.201400756835938,-0.5886343717575073,-1.6064813137054443
1729114998671476500,10.7494765625,9.43190860748291,0.3523431420326233,-2.95902419090271
1729114998709411000,10.7874111328125,9.819845199584961,-0.07148557901382446,-1.4626128673553467
1729114998747345700,10.825345703125,10.542776107788086,0.10797612369060516,-1.1012966632843018
1729114998785280300,10.8632802734375,8.103293418884277,0.12711870670318604,-1.8888343572616577
1729114998823214800,10.90121484375,11.095817565917969,-0.36610186100006104,-1.8792630434036255
1729114998861149400,10.9391494140625,7.770392417907715,-0.05952146276831627,-1.2735798358917236
1729114998899084000,10.977083984375,11.110174179077148,0.36191442608833313,-1.1754741668701172
1729114998937018600,11.0150185546875,12.055937767028809,-1.256531000137329,-1.225723385810852
1729114998974953200,11.052953125,10.334601402282715,-0.7513462901115417,-1.6615161895751953
1729114999012887800,11.0908876953125,11.038390159606934,-0.4019941985607147,-1.4841482639312744
1729114999050822400,11.128822509765625,11.033604621887207,-0.2679961323738098,-0.6774678826332092
1729114999088756700,11.1667568359375,7.926225185394287,0.6299105882644653,-2.3916261196136475
1729114999126691300,11.20469140625,9.585348129272461,-0.3517449200153351,-1.3525429964065552
1729114999164626000,11.2426259765625,10.090533256530762,-0.88803631067276,-1.7572290897369385
1729114999202560500,11.280560546875,13.19551944732666,-0.2967100143432617,-1.8553348779678345
1729114999240495000,11.3184951171875,7.5406813621521,0.8093722462654114,-2.130509376525879
1729114999278429700,11.3564296875,9.599705696105957,-0.1743769496679306,-1.1084750890731812
1729114999316364300,11.3943642578125,10.540383338928223,0.04336991161108017,-2.3126630783081055
1729114999354299000,11.432298828125,11.612966537475586,0.1534397453069687,-2.003689765930176
1729114999392233500,11.4702333984375,7.571788311004639,1.0513464212417603,-2.8130621910095215
1729114999430168000,11.50816796875,10.49252700805664,-0.07148557901382446,-2.214557409286499
1729114999468102700,11.5461025390625,10.482955932617188,0.3523431420326233,0.016749758273363113
1729114999506037200,11.584037353515624,7.528717517852783,0.6394818425178528,-0.24167509377002716
1729114999543971800,11.621971923828125,11.696715354919434,-1.4315061569213867,-0.5913262963294983
1729114999581906400,11.659906494140625,10.698609352111816,-2.92283296585083,1.2161520719528198
1729114999619841000,11.697841064453126,9.793523788452148,-2.5710878372192383,0.46450668573379517
1729114999657775600,11.735775634765625,11.371291160583496,-2.968296527862549,0.38315072655677795
1729114999695710200,11.773710205078125,12.613764762878418,-2.9563324451446533,0.39032918214797974
1729114999733644500,11.81164453125,9.999306678771973,-2.5256242752075195,-0.37088751792907715
1729114999771579100,11.8495791015625,10.341779708862305,-2.082653045654297,-0.5673980712890625
1729114999809513700,11.887513671875,7.5071821212768555,-1.3402798175811768,0.20847466588020325
1729114999847448300,11.9254482421875,10.444670677185059,-0.7800601720809937,-1.6256239414215088
1729114999885383000,11.9633828125,9.783952713012695,-1.012463092803955,-0.2871387302875519
1729114999923317500,12.0013173828125,9.44626522064209,-2.137687921524048,-1.194616675376892
1729114999961252000,12.039252197265625,9.606884002685547,-1.5894324779510498,0.5051847100257874
1729114999999186700,12.077186767578125,9.477372169494629,-1.716252088546753,0.3161516785621643
1729115000037121300,12.115121337890624,10.851749420166016,-2.1329023838043213,-0.19142581522464752
1729115000075055900,12.153055908203125,8.488837242126465,-1.8143577575683594,-0.5051847100257874
1729115000112990500,12.190990478515625,10.973783493041992,-2.3410778045654297,-0.29431718587875366
1729115000150925000,12.228925048828126,9.386445045471191,-2.140080690383911,-0.24885354936122894
1729115000188859600,12.266859619140625,10.133604049682617,-2.123331069946289,-0.20338992774486542
1729115000226794200,12.304794189453125,10.947463035583496,-2.475374937057495,-0.7755736112594604
1729115000264728800,12.342728759765626,9.618847846984863,-2.781656265258789,-1.012762188911438
1729115000302663400,12.380663330078125,10.124032974243164,-2.3219351768493652,-0.5147559642791748
1729115000340598000,12.418597900390624,9.690632820129395,-2.3626132011413574,-0.6583253145217896
1729115000378532600,12.45653271484375,9.905986785888672,-2.2286152839660645,0.016749758273363113
1729115000416467200,12.49446728515625,9.805487632751465,-2.14725923538208,-0.26560330390930176
1729115000454401800,12.53240185546875,9.9442720413208,-1.8765711784362793,-0.2991028428077698
1729115000492336400,12.57033642578125,9.786345481872559,-1.5894324779510498,-0.23688943684101105
1729115000530271000,12.60827099609375,9.977771759033203,-1.184746265411377,-0.32303106784820557
1729115000568205600,12.64620556640625,9.84855842590332,-0.7513462901115417,-0.349352091550827
1729115000606140000,12.684139892578125,9.956235885620117,-0.4211367964744568,-0.34217363595962524
1729115000644074500,12.722074462890625,9.867701530456543,-0.14805589616298676,-0.2273181527853012
1729115000682009000,12.760009033203126,9.937093734741211,0.06011966988444328,-0.2512463629245758
1729115000719943700,12.797943603515625,9.874879837036133,0.2587239444255829,-0.2799602448940277
1729115000757878300,12.835878173828124,9.937093734741211,0.34995031356811523,-0.059820566326379776
1729115000795812900,12.873812744140626,9.779167175292969,0.3281157910823822,0.24915266036987305
1729115000833747500,12.91174755859375,9.980164527893066,0.1295115202665329,-0.10049854964017868
1729115000871682000,12.94968212890625,9.877272605895996,0.04097708687186241,-0.32542386651039124
1729115000909616600,12.98761669921875,9.898808479309082,0.02183450572192669,-0.09092725813388824
1729115000947551200,13.02555126953125,9.84855842590332,-0.011665010824799538,-0.17706887423992157
1729115000985485800,13.06348583984375,9.920343399047852,-0.07627122104167938,-0.16271193325519562
1729115001023420400,13.10142041015625,9.894022941589355,-0.10977073758840561,-0.15314064919948578
1729115001061355000,13.13935498046875,9.920343399047852,-0.15523436665534973,-0.16510476171970367
1729115001099289600,13.17728955078125,9.87966537475586,-0.1504487246274948,-0.15553347766399384
1729115001137224200,13.21522412109375,9.896415710449219,-0.17198412120342255,-0.1579262912273407
1729115001175158800,13.25315869140625,9.903594017028809,-0.16719847917556763,-0.14117653667926788
1729115001213093400,13.29109326171875,9.901201248168945,-0.13609178364276886,-0.15074782073497772
1729115001251028000,13.329028076171875,9.903594017028809,-0.12652049958705902,-0.16271193325519562
1729115001288962600,13.366962646484374,9.905986785888672,-0.0690927505493164,0.02632104977965355
1729115001326897200,13.404897216796876,9.829416275024414,0.036191441118717194,0.0933200865983963
1729115001364831700,13.442831787109375,9.688240051269531,0.24915266036987305,0.02871387079358101
1729115001402766000,13.48076611328125,10.179067611694336,-0.13848461210727692,0
1729115001440700700,13.51870068359375,9.905986785888672,0.009870393201708794,0.890728235244751
1729115001478635300,13.55663525390625,10.085747718811035,-0.06430710852146149,1.1371889114379883
1729115001516569900,13.59456982421875,9.84138011932373,-0.43549370765686035,0.7591229677200317
1729115001554504400,13.63250439453125,9.805487632751465,-0.2632105052471161,0.8859425783157349
1729115001592439000,13.67043896484375,10.0040922164917,-0.34217363595962524,1.4940186738967896
1729115001630373600,13.70837353515625,9.731310844421387,-0.4019941985607147,1.1491531133651733
1729115001668308200,13.74630810546875,10.12881851196289,-0.9143573641777039,0.6921239495277405
1729115001706242800,13.784242919921875,9.798309326171875,-0.9646066427230835,0.36640095710754395
1729115001744177400,13.822177490234376,9.561420440673828,-0.5359922647476196,0.3281157910823822
1729115001782112000,13.860112060546875,9.532706260681152,-0.4211367964744568,-0.2632105052471161
1729115001820046600,13.898046630859374,10.030413627624512,-0.397208571434021,-0.32303106784820557
1729115001857981200,13.935981201171876,10.032806396484375,-0.5264210104942322,-0.48843491077423096
1729115001895915800,13.973915771484375,9.929914474487305,-0.40677985548973083,-0.28235307335853577
1729115001933850400,14.011850341796874,10.001699447631836,-0.3397808074951172,-0.12921242415905
1729115001971785000,14.049784912109375,9.975378036499023,-0.4019941985607147,-0.39481574296951294
1729115002009719600,14.087719482421875,9.915557861328125,-0.35892340540885925,0.02871387079358101
1729115002047654100,14.125654052734374,9.915557861328125,-0.3565305769443512,0.3616153299808502
1729115002085588700,14.163588623046875,9.941879272460938,-0.4737788736820221,0.23001007735729218
1729115002123523300,14.2015234375,9.889236450195312,-0.46420758962631226,0.4262215197086334
1729115002161458000,14.2394580078125,9.9442720413208,-0.6580262184143066,-0.2392822653055191
1729115002199392500,14.277392578125,9.941879272460938,-0.349352091550827,0.49322056770324707
1729115002237327000,14.3153271484375,10.15753173828125,-0.5335994362831116,0.39032918214797974
1729115002275261700,14.35326171875,10.14317512512207,-0.5527420043945312,0.7256234884262085
1729115002313196300,14.3911962890625,9.843772888183594,-0.5216353535652161,0.5937191247940063
1729115002351131000,14.429130859375,9.846165657043457,-0.7082754969596863,0.23240290582180023
1729115002389065500,14.4670654296875,9.614062309265137,-0.5288137793540955,0.3616153299808502
1729115002426999800,14.504999755859375,10.277173042297363,-0.7034898400306702,0.368793785572052
1729115002464934400,14.542934326171874,9.855737686157227,-0.7489534616470337,0.134297177195549
1729115002502869000,14.580868896484375,9.690632820129395,-0.6939185857772827,0.28504499793052673
1729115002540803600,14.618803466796875,9.245268821716309,-0.4139583110809326,0.521934449672699
1729115002578738200,14.65673828125,10.188638687133789,-0.9909276962280273,0.09092725813388824
1729115002616672800,14.6946728515625,9.798309326171875,-0.7202396392822266,0.27308088541030884
1729115002654607400,14.732607421875,10.104889869689941,-0.7899305820465088,0.27786654233932495
1729115002692542000,14.7705419921875,9.666704177856445,-0.6245267391204834,0.25393831729888916
1729115002730476500,14.8084765625,9.884450912475586,-0.7752745151519775,0.23240290582180023
1729115002768411100,14.8464111328125,9.750452995300293,-0.44027936458587646,0.4549354016780853
1729115002806345700,14.884345703125,9.932307243347168,-0.4307080805301666,0.2946162819862366
1729115002844280300,14.9222802734375,9.779167175292969,-0.5383850932121277,0.11994023621082306
1729115002882215000,14.96021484375,9.910772323608398,-0.6652047038078308,0.2994019389152527
1729115002920149500,14.9981494140625,9.898808479309082,-0.7202396392822266,-0.2919243574142456
1729115002958084000,15.036083984375,9.946664810180664,-0.576670229434967,0
1729115002996018700,15.074018798828124,9.889236450195312,-0.44745782017707825,-0.18424734473228455
1729115003033953300,15.111953369140625,9.712167739868164,-0.2991028428077698,0.0526420995593071
1729115003071888000,15.149887939453125,9.975378036499023,-0.2991028428077698,0.10289137065410614
1729115003109822500,15.187822509765626,9.676275253295898,-0.20069800317287445,0.2587239444255829
1729115003147757000,15.225757080078125,9.920343399047852,-0.3852444589138031,0.13190434873104095
1729115003185691600,15.263691650390625,9.578169822692871,-0.4833501875400543,-0.2512463629245758
1729115003223626200,15.301626220703126,10.013663291931152,-0.6891329288482666,-0.4501497745513916
1729115003261560800,15.339560791015625,9.84855842590332,-0.7489534616470337,-1.1443674564361572
1729115003299495400,15.377495361328124,10.12881851196289,-1.3860424757003784,-2.231307029724121
1729115003337430000,15.415429931640626,9.84138011932373,-1.2421740293502808,-1.5391831398010254
1729115003375364600,15.453364501953125,9.913165092468262,-1.2541381120681763,-0.5147559642791748
1729115003413299200,15.49129931640625,9.60927677154541,-0.6125625967979431,0.13908281922340393
1729115003451233800,15.52923388671875,9.846165657043457,-0.47617170214653015,-0.28953152894973755
1729115003489168400,15.56716845703125,9.666704177856445,-0.2871387302875519,-0.2632105052471161
1729115003527103000,15.60510302734375,9.961021423339844,-0.04995017126202583,0.28983065485954285
1729115003565037600,15.64303759765625,9.779167175292969,0.036191441118717194,-0.3613162338733673
1729115003602972200,15.68097216796875,9.927521705627441,0.1821536272764206,-0.0933200865983963
1729115003640906500,15.718906494140626,9.817452430725098,0.2228316068649292,-0.09092725813388824
1729115003678841300,15.75684130859375,9.932307243347168,0.1701895147562027,-0.19142581522464752
1729115003716776000,15.79477587890625,9.870094299316406,0.12472587823867798,-0.13160525262355804
1729115003754710300,15.832710205078126,9.917950630187988,0.057726845145225525,-0.17706887423992157
1729115003792644900,15.870644775390625,9.889236450195312,0.01944168470799923,-0.12203395366668701
1729115003830579500,15.908579345703124,9.894022941589355,-0.011665010824799538,-0.1746760457754135
1729115003868514000,15.94651416015625,9.891630172729492,-0.03320041298866272,-0.15074782073497772
1729115003906448600,15.98444873046875,9.896415710449219,-0.045164529234170914,-0.16031911969184875
1729115003944383200,16.02238330078125,9.901201248168945,-0.04755735024809837,-0.1339980661869049
1729115003982317800,16.06031787109375,9.88684368133545,-0.03798605874180794,-0.15553347766399384
1729115004020252400,16.09825244140625,9.903594017028809,-0.042771704494953156,-0.14356936514377594
1729115004058187000,16.13618701171875,9.889236450195312,-0.03080759197473526,-0.1579262912273407
1729115004096121600,16.17412158203125,9.891630172729492,-0.026021946221590042,-0.15314064919948578
1729115004134056200,16.21205615234375,9.889236450195312,-0.03080759197473526,-0.15074782073497772
1729115004171990800,16.24999072265625,9.891630172729492,-0.014057832770049572,-0.13878370821475983
1729115004209925400,16.28792529296875,9.894022941589355,-0.02841476909816265,-0.14835500717163086
1729115004247860000,16.32585986328125,9.896415710449219,-0.03559323772788048,-0.1579262912273407
1729115004285794600,16.363794677734376,9.898808479309082,-0.03320041298866272,-0.1579262912273407
1729115004323729200,16.401729248046873,9.884450912475586,-0.03559323772788048,-0.15074782073497772
1729115004361663700,16.439663818359374,9.908379554748535,-0.021236300468444824,-0.12681959569454193
1729115004399598300,16.477598388671876,9.898808479309082,-0.03080759197473526,-0.14835500717163086
1729115004437533000,16.515532958984377,9.908379554748535,-0.03320041298866272,-0.1459621787071228
1729115004475467500,16.553467529296874,9.882058143615723,-0.026021946221590042,-0.14356936514377594
1729115004513402000,16.591402099609375,9.901201248168945,-0.023629123345017433,-0.13639089465141296
1729115004551336700,16.629336669921877,9.874879837036133,-0.03559323772788048,-0.14117653667926788
1729115004589271300,16.667271240234374,9.913165092468262,0.055334024131298065,-0.14356936514377594
1729115004627206000,16.705205810546875,9.929914474487305,0.17497515678405762,-0.15553347766399384
1729115004665140500,16.743140380859376,9.84855842590332,0.47198426723480225,-0.14356936514377594
1729115004703075000,16.781074951171874,9.922736167907715,0.7567301392555237,-0.02871387079358101
1729115004741009700,16.819009765625,9.87248706817627,0.5150550603866577,-0.04785645380616188
1729115004778944300,16.8569443359375,9.85813045501709,0.5700899958610535,-0.18424734473228455
1729115004816878800,16.89487890625,9.953843116760254,0.3523431420326233,-0.0933200865983963
1729115004854813400,16.9328134765625,9.867701530456543,0.3475574851036072,-0.08853443711996078
1729115004892748000,16.970748046875,9.953843116760254,0.5581258535385132,-0.17228323221206665
1729115004930682600,17.0086826171875,9.738489151000977,0.9628120064735413,-0.19142581522464752
1729115004968617200,17.0466171875,10.011270523071289,1.226022481918335,0.007178467698395252
1729115005006551800,17.0845517578125,10.030413627624512,1.2834502458572388,-0.24646073579788208
1729115005044486400,17.122486328125,10.008877754211426,1.293021559715271,-0.07178468257188797
1729115005082421000,17.1604208984375,10.15035343170166,1.2595219612121582,-0.08374879509210587
1729115005120355300,17.198355224609376,9.688240051269531,1.5254244804382324,0.038285162299871445
1729115005158290200,17.236290283203125,11.155638694763184,1.163809061050415,-0.1866401731967926
1729115005196224800,17.274224853515626,10.777572631835938,1.3767703771591187,-0.16749759018421173
1729115005234159400,17.312159423828124,10.559526443481445,1.4557334184646606,-0.2105683982372284
1729115005272094000,17.350093994140625,10.971390724182129,1.2164511680603027,-0.24167509377002716
1729115005310028500,17.388028564453126,10.344172477722168,1.664208173751831,0.1941177397966385
1729115005347963000,17.425962890625,9.508777618408203,1.4533406496047974,0.02392822690308094
1729115005385897500,17.4638974609375,10.234102249145508,1.5230315923690796,-1.2185449600219727
1729115005423832000,17.50183203125,11.175080299377441,1.664208173751831,0.42382872104644775
1729115005461766700,17.5397666015625,12.841082572937012,1.438983678817749,0.42382872104644775
1729115005499701200,17.577701171875,8.14636516571045,2.408675193786621,-0.5506483316421509
1729115005537635800,17.6156357421875,11.742478370666504,1.7072789669036865,0.16061821579933167
1729115005575570400,17.6535703125,10.04267692565918,2.650649309158325,0.23718854784965515
1729115005613505000,17.691505126953125,6.9445695877075195,2.274677038192749,-1.0917253494262695
1729115005651439600,17.729439697265626,10.49252700805664,1.9513468742370605,-0.6774678826332092
1729115005689374200,17.767374267578123,11.560324668884277,1.6713865995407104,0.5147559642791748
1729115005727308800,17.805308837890625,11.632108688354492,1.4775680303573608,0.31375887989997864
1729115005765243400,17.843243408203126,8.996415138244629,1.8436698913574219,-0.5171487927436829
1729115005803178000,17.881177978515623,10.50927734375,1.0298110246658325,-0.349352091550827
1729115005841112600,17.919112548828124,11.60818099975586,1.4318052530288696,-1.5702898502349854
1729115005879047200,17.957047119140626,4.741976261138916,0.4504488706588745,-1.7883358001708984
1729115005916981800,17.994981689453127,12.817154884338379,0.5413761138916016,-1.048654556274414
1729115005954916400,18.032916259765624,11.668001174926758,-0.6364908218383789,-2.872882604598999
1729115005992851000,18.070850830078125,9.537491798400879,0.2515454888343811,-3.4067811965942383
1729115006030785500,18.10878564453125,8.598907470703125,0.953240692615509,-3.100200891494751
1729115006068720000,18.14672021484375,14.399707794189453,-1.1416754722595215,-2.166700839996338
1729115006106654700,18.18465478515625,7.387540817260742,-0.41874396800994873,-2.3988046646118164
1729115006144589300,18.22258935546875,9.477372169494629,-1.40279221534729,-5.415256977081299
1729115006182524000,18.26052392578125,10.360921859741211,-0.8210372924804688,-2.39401912689209
1729115006220458500,18.29845849609375,10.585846900939941,-1.3331012725830078,-2.5495524406433105
1729115006258393000,18.33639306640625,8.886046409606934,-0.21744775772094727,-3.334996461868286
1729115006296327700,18.37432763671875,10.811071395874023,0.09361918270587921,-1.5607185363769531
1729115006334262300,18.41226220703125,9.946664810180664,0.13668999075889587,-1.6734803915023804
1729115006372196900,18.45019677734375,10.861321449279785,0.2994019389152527,-2.2432711124420166
1729115006410131500,18.48813134765625,10.112068176269531,0.6370890140533447,-2.942274570465088
1729115006448066000,18.526066162109377,6.654738903045654,0.9628120064735413,-2.4993033409118652
1729115006486000600,18.564000732421874,11.268400192260742,0.8309076428413391,-2.0970098972320557
1729115006523935200,18.601935302734375,8.728119850158691,0.9819545745849609,-1.165902853012085
1729115006561869800,18.639869873046877,8.462516784667969,1.4871392250061035,-1.3334003686904907
1729115006599804400,18.677804443359374,7.7368927001953125,1.4437693357467651,1.5634105205535889
1729115006637739000,18.715739013671875,12.577872276306152,-0.6652047038078308,2.418246269226074
1729115006675673600,18.753673583984376,9.216554641723633,0.768694281578064,-0.7109674215316772
1729115006713608200,18.791608154296874,10.518848419189453,-0.7082754969596863,-0.05742774158716202
1729115006751542800,18.829542724609375,7.724928855895996,0.00029910283046774566,-0.12442677468061447
1729115006789477400,18.867477294921876,6.839285373687744,1.0441679954528809,0.6849454641342163
1729115006827412000,18.905411865234374,12.015259742736816,-1.3283156156539917,0.11515458673238754
1729115006865346600,18.9433466796875,9.76241683959961,0.4983053207397461,1.2305090427398682
1729115006903281200,18.98128125,8.847761154174805,0.3978067636489868,1.134796142578125
1729115006941215700,19.0192158203125,10.219745635986328,-0.9406784176826477,1.0630114078521729
1729115006979150300,19.057150390625,10.782358169555664,-0.28235307335853577,2.152343988418579
1729115007017085000,19.0950849609375,6.506383895874023,-0.5694918036460876,1.3265210390090942
1729115007055019500,19.13301953125,10.394421577453613,-1.1512467861175537,1.867598056793213
1729115007092954000,19.1709541015625,8.790332794189453,0.22761724889278412,2.6336004734039307
1729115007130888700,19.208888671875,11.455039978027344,-0.6771687865257263,2.245664119720459
1729115007168823300,19.2468232421875,10.243673324584961,-0.9334999322891235,1.810170292854309
1729115007206758000,19.2847578125,7.4210405349731445,1.3432707786560059,2.5522444248199463
1729115007244692500,19.3226923828125,11.57707405090332,-0.20787647366523743,2.604886531829834
1729115007282627000,19.360626953125,7.8113694190979,-0.8042874932289124,1.7428722381591797
1729115007320561700,19.398561767578126,9.673882484436035,0.23718854784965515,1.7428722381591797
1729115007358496300,19.436496337890624,10.622038841247559,-0.21266211569309235,1.3384851217269897
1729115007396430600,19.4744306640625,11.045568466186523,-0.05473581701517105,2.276770830154419
1729115007434365200,19.512365234375,7.612466335296631,0.5150550603866577,3.2297122478485107
1729115007472299800,19.5502998046875,7.868797302246094,-0.7657032608985901,1.7883358001708984
1729115007510234400,19.588234375,14.251352310180664,-0.8090731501579285,0.8045865893363953
1729115007548169200,19.626169189453126,9.429515838623047,0.0768694281578064,1.3935201168060303
1729115007586103800,19.664103759765624,8.866903305053711,0.22043879330158234,1.1012966632843018
1729115007624038100,19.7020380859375,10.770393371582031,0.09122636169195175,0.4501497745513916
1729115007661972700,19.73997265625,1.2705888748168945,0.7854440212249756,0.5889334678649902
1729115007699907300,19.7779072265625,14.442778587341309,1.3145569562911987,-2.856132984161377
1729115007737842000,19.815842041015625,16.363018035888672,-0.042771704494953156,-3.8473596572875977
1729115007775776500,19.853776611328126,5.869594097137451,0.7519445419311523,-2.520838737487793
1729115007813711000,19.891711181640623,12.666406631469727,-0.8760721683502197,0.802193820476532
1729115007851645700,19.929645751953124,13.092628479003906,-0.9837492108345032,-0.059820566326379776
1729115007889580300,19.967580322265626,7.641180038452148,0.3113660514354706,-0.5458626747131348
1729115007927515000,20.005514892578127,5.72123908996582,-0.44745782017707825,-0.921535849571228
1729115007965449500,20.043449462890624,9.707382202148438,0.25633111596107483,0.1989033818244934
1729115008003384000,20.081384033203125,5.8097734451293945,-0.23449662327766418,-0.09571290761232376
1729115008041318700,20.119318603515627,9.743274688720703,-1.0579266548156738,0.735194742679596
1729115008079253200,20.157253173828124,9.072985649108887,-0.2512463629245758,1.0773683786392212
1729115008117187800,20.195187744140625,11.828619956970215,-0.28953152894973755,-0.09571290761232376
1729115008155122400,20.233122314453126,12.13490104675293,0.00029910283046774566,0.6607181429862976
1729115008193057000,20.27105712890625,11.735299110412598,-0.40677985548973083,1.4485549926757812
1729115008230991600,20.30899169921875,9.60209846496582,-0.7657032608985901,-0.08135596662759781
1729115008268926200,20.34692626953125,12.317054748535156,-2.106581211090088,0.031106693670153618
1729115008306860800,20.38486083984375,11.098210334777832,-2.5399811267852783,0.1175474151968956
1729115008344795400,20.42279541015625,8.675477981567383,-1.831107497215271,-1.1754741668701172
1729115008382730000,20.46072998046875,9.992128372192383,-2.0228323936462402,0.5817549824714661
1729115008420664600,20.49866455078125,9.367302894592285,-2.544766902923584,-0.1339980661869049
1729115008458599200,20.53659912109375,7.818548202514648,-0.8712865710258484,0.15104693174362183
1729115008496533800,20.57453369140625,12.31944751739502,-3.0810582637786865,0.3233301639556885
1729115008534468400,20.61246826171875,8.306683540344238,-2.4511477947235107,-0.6032904386520386
1729115008572403000,20.65040283203125,10.15753173828125,-1.8526428937911987,0.4262215197086334
1729115008610337500,20.688337646484374,9.45583724975586,-2.2070798873901367,-0.15074782073497772
1729115008648272100,20.726272216796875,10.456634521484375,-2.4032912254333496,-0.3852444589138031
1729115008686206700,20.764206787109377,9.88684368133545,-2.21665096282959,-0.01196411345154047
1729115008724141300,20.802141357421874,9.494421005249023,-2.6285157203674316,-0.6631109714508057
1729115008762076000,20.840075927734375,11.821440696716309,-2.7912275791168213,0.7447660565376282
1729115008800010500,20.878010498046876,9.247661590576172,-1.7928223609924316,-0.1052841991186142
1729115008837945000,20.915945068359374,9.474979400634766,-1.6564314365386963,-0.9311071038246155
1729115008875879700,20.953879638671875,9.218947410583496,-1.953440546989441,-0.19142581522464752
1729115008913814300,20.991814208984376,10.51645565032959,-2.2908284664154053,0.1414756327867508
1729115008951748900,21.029748779296874,9.192625999450684,-2.3315064907073975,-0.44745782017707825
1729115008989683500,21.067683349609375,10.212567329406738,-2.137687921524048,-0.16749759018421173
1729115009027618000,21.1056181640625,9.659525871276855,-2.082653045654297,-0.31824541091918945
1729115009065552600,21.143552734375,10.066604614257812,-2.0563318729400635,-0.12921242415905
1729115009103487200,21.1814873046875,9.819845199584961,-1.8741782903671265,-0.1746760457754135
1729115009141421800,21.219421875,9.9442720413208,-1.5607185363769531,-0.17706887423992157
1729115009179356400,21.2573564453125,9.862915992736816,-1.0244271755218506,-0.3900300860404968
1729115009217291000,21.295291015625,9.937093734741211,-0.6269195079803467,-0.031106693670153618
1729115009255225600,21.3332255859375,9.867701530456543,-0.2584248483181,-0.4259224236011505
1729115009293160200,21.37116015625,9.910772323608398,-0.016450656577944756,-0.19621145725250244
1729115009331094800,21.4090947265625,9.884450912475586,0.17736798524856567,-0.23449662327766418
1729115009369029400,21.447029296875,9.910772323608398,0.20847466588020325,-0.2967100143432617
1729115009406964000,21.4849638671875,9.891630172729492,0.20608185231685638,-0.1866401731967926
1729115009444898600,21.522898681640626,9.908379554748535,0.21804596483707428,-0.29431718587875366
1729115009482833200,21.560833251953124,9.905986785888672,0.1869392693042755,-0.3086741268634796
1729115009520767700,21.598767822265625,9.901201248168945,0.12711870670318604,-0.23688943684101105
1729115009558702300,21.636702392578126,9.901201248168945,0.06729813665151596,-0.27756741642951965
1729115009596637000,21.674636962890624,9.884450912475586,0.033798620104789734,-0.275174617767334
1729115009634571500,21.712571533203125,9.903594017028809,-0.016450656577944756,-0.27038896083831787
1729115009672506000,21.750506103515626,9.896415710449219,-0.03559323772788048,-0.2679961323738098
1729115009710440700,21.788440673828124,9.901201248168945,-0.042771704494953156,-0.2584248483181
1729115009748375300,21.826375244140625,9.901201248168945,-0.03559323772788048,-0.26560330390930176
1729115009786310000,21.864309814453126,9.896415710449219,-0.03320041298866272,-0.2512463629245758
1729115009824244500,21.902244384765623,9.894022941589355,-0.045164529234170914,-0.2560320198535919
1729115009862179000,21.940178955078125,9.894022941589355,-0.03559323772788048,-0.2584248483181
1729115009900113700,21.97811376953125,9.898808479309082,-0.03798605874180794,-0.28953152894973755
1729115009938048300,22.01604833984375,9.867701530456543,-0.011665010824799538,-0.2632105052471161
1729115009975982800,22.05398291015625,9.901201248168945,-0.03798605874180794,-0.27038896083831787
1729115010013917400,22.09191748046875,9.908379554748535,-0.04995017126202583,-0.3206382393836975
1729115010051852000,22.12985205078125,9.831809043884277,-0.13848461210727692,-0.5985047817230225
1729115010089786600,22.16778662109375,10.028020858764648,-0.014057832770049572,-0.4139583110809326
1729115010127721200,22.20572119140625,9.889236450195312,-0.14327025413513184,-0.4501497745513916
1729115010165655800,22.24365576171875,9.781559944152832,0.04815555736422539,-1.072582721710205
1729115010203590400,22.28159033203125,9.805487632751465,0.08165507018566132,-1.5176477432250977
1729115010241525000,22.31952490234375,10.8397855758667,-0.38285163044929504,1.1300104856491089
1729115010279459600,22.35745947265625,9.704989433288574,-0.397208571434021,-0.06939185410737991
1729115010317394200,22.395394287109376,10.140782356262207,-0.18394823372364044,0.24436701834201813
1729115010355328800,22.433328857421873,9.666704177856445,-0.48095735907554626,-1.4530415534973145
1729115010393263400,22.471263427734375,9.910772323608398,-0.37806597352027893,-1.469791293144226
1729115010431198000,22.509197998046876,9.829416275024414,-0.4139583110809326,-1.1132607460021973
1729115010469132500,22.547132568359373,9.896415710449219,-0.7824530005455017,-1.3453645706176758
1729115010507067100,22.585067138671874,10.045069694519043,-0.9598209857940674,-1.0869396924972534
1729115010545001700,22.623001708984376,9.86530876159668,-0.9406784176826477,-0.8736793398857117
1729115010582936300,22.660936279296877,9.831809043884277,-1.3354941606521606,-0.42352959513664246
1729115010620871000,22.698870849609374,9.939486503601074,-1.5990036725997925,-0.014356935396790504
1729115010658805500,22.736805419921875,9.870094299316406,-1.7569299936294556,-0.4450650215148926
1729115010696740000,22.774739990234377,9.647562026977539,-1.3884353637695312,-0.04546362906694412
1729115010734674700,22.8126748046875,10.222138404846191,-1.8215361833572388,0.2874378263950348
1729115010772609300,22.850609375,10.071390151977539,-1.4267204999923706,0.5386841893196106
1729115010810543900,22.8885439453125,9.45583724975586,-1.2397812604904175,0.5745765566825867
1729115010848478500,22.926478515625,10.710573196411133,-1.9725831747055054,0.771087110042572
1729115010886413000,22.9644130859375,9.977771759033203,-0.8473583459854126,0.6897311210632324
1729115010924347600,23.00234765625,9.427123069763184,-1.0028917789459229,0.1821536272764206
1729115010962282200,23.0402822265625,10.729716300964355,-1.5200406312942505,0.13668999075889587
1729115011000216800,23.078216796875,9.554242134094238,-1.0579266548156738,0.2946162819862366
1729115011038151400,23.1161513671875,10.29870891571045,-1.3621143102645874,0.7088736891746521
1729115011076086000,23.1540859375,9.949057579040527,-1.3450654745101929,0.9337990283966064
1729115011114020600,23.1920205078125,10.059426307678223,-0.8521439433097839,0.8309076428413391
1729115011151955200,23.229955078125,10.076175689697266,-0.9550353288650513,0.8213363885879517
1729115011189889800,23.267889892578125,10.305887222290039,-1.4386845827102661,0.4046861231327057
1729115011227824400,23.305824462890627,9.76241683959961,-1.1775678396224976,0.20129621028900146
1729115011265759000,23.343759033203124,10.289137840270996,-1.1943175792694092,0.42382872104644775
1729115011303693600,23.381693603515625,10.114460945129395,-1.1560324430465698,0.7040880918502808
1729115011341628200,23.419628173828126,11.61535930633545,-1.536790370941162,1.812563180923462
1729115011379562800,23.457562744140624,10.107282638549805,-1.3402798175811768,0.8620143532752991
1729115011417497300,23.495497314453125,10.262816429138184,-0.9909276962280273,0.7399803996086121
1729115011455432000,23.533431884765626,9.049057006835938,-0.40677985548973083,0.6080760359764099
1729115011493366500,23.571366455078124,10.921141624450684,-0.2967100143432617,0.3975076675415039
1729115011531301000,23.609301025390625,9.451051712036133,0.5796613097190857,2.446960210800171
1729115011569235700,23.647235595703126,10.303494453430176,1.3432707786560059,3.263211965560913
1729115011607170300,23.68517041015625,9.305088996887207,1.8005990982055664,2.487638235092163
1729115011645105000,23.72310498046875,10.202995300292969,1.5996019840240479,1.261914849281311
1729115011683039500,23.76103955078125,9.96580696105957,1.4871392250061035,-0.05024927482008934
1729115011720974000,23.79897412109375,9.434301376342773,1.0752747058868408,-0.521934449672699
1729115011758908700,23.83690869140625,9.992128372192383,0.6059823632240295,-0.21774685382843018
1729115011796843300,23.87484326171875,9.752845764160156,0.3329014480113983,-0.02871387079358101
1729115011834777900,23.91277783203125,10.083354949951172,-0.0810568705201149,-0.2225325107574463
1729115011872712400,23.95071240234375,9.8509521484375,-0.28953152894973755,-0.14356936514377594
1729115011910647000,23.98864697265625,9.961021423339844,-0.39481574296951294,-0.20578274130821228
1729115011948581600,24.02658154296875,9.846165657043457,-0.30149564146995544,-0.20338992774486542
1729115011986516200,24.06451611328125,9.927521705627441,-0.17916259169578552,-0.16749759018421173
1729115012024450800,24.102450927734374,9.862915992736816,-0.2392822653055191,-0.06939185410737991
1729115012062385400,24.140385498046875,9.934700965881348,-0.32542386651039124,-0.23210379481315613
1729115012100320000,24.178320068359376,9.884450912475586,-0.24885354936122894,-0.17706887423992157
1729115012138254800,24.2162548828125,9.925128936767578,-0.22223339974880219,-0.15314064919948578
1729115012176189200,24.254189208984375,9.867701530456543,-0.13609178364276886,-0.17946170270442963
1729115012214123800,24.292123779296876,9.88684368133545,-0.08584251254796982,-0.1459621787071228
1729115012252058400,24.330058349609374,9.87248706817627,-0.0690927505493164,-0.17706887423992157
1729115012289993200,24.3679931640625,9.896415710449219,-0.03798605874180794,-0.16271193325519562
1729115012327927800,24.405927734375,9.903594017028809,-0.07387840002775192,-0.17946170270442963
1729115012365862400,24.4438623046875,9.889236450195312,-0.11216355860233307,-0.17228323221206665
1729115012403796700,24.481796630859375,9.889236450195312,-0.10259227454662323,-0.17228323221206665
1729115012441731600,24.519731689453124,9.901201248168945,-0.10498509556055069,-0.1579262912273407
1729115012479666200,24.557666259765625,9.905986785888672,-0.10737791657447815,-0.17228323221206665
1729115012517600800,24.595600830078126,9.882058143615723,-0.10977073758840561,-0.17946170270442963
1729115012555535400,24.633535400390624,9.901201248168945,-0.10019944608211517,-0.1818545162677765
1729115012593470000,24.671469970703125,9.891630172729492,-0.10259227454662323,-0.1746760457754135
1729115012631405600,24.709405517578126,9.898808479309082,-0.10019944608211517,-0.17706887423992157
1729115012669340200,24.747340087890624,9.903594017028809,-0.10019944608211517,-0.1698904037475586
1729115012707274800,24.785274658203125,9.894022941589355,-0.09541380405426025,-0.16749759018421173
1729115012745209300,24.823209228515626,9.891630172729492,-0.0930209830403328,-0.17228323221206665
1729115012783144000,24.86114404296875,9.905986785888672,-0.09541380405426025,-0.16510476171970367
1729115012821078500,24.89907861328125,9.896415710449219,-0.10019944608211517,-0.18424734473228455
1729115012859013000,24.93701318359375,9.905986785888672,-0.09780662506818771,-0.15314064919948578
1729115012896947700,24.97494775390625,9.889236450195312,-0.0930209830403328,-0.1818545162677765
1729115012934882300,25.01288232421875,9.88684368133545,-0.0930209830403328,-0.16749759018421173
1729115012972817000,25.05081689453125,9.910772323608398,-0.10737791657447815,-0.16749759018421173
1729115013010751500,25.08875146484375,9.889236450195312,-0.10019944608211517,-0.1698904037475586
1729115013048686000,25.12668603515625,9.913165092468262,-0.10019944608211517,-0.17946170270442963
1729115013086620700,25.16462060546875,9.889236450195312,-0.10977073758840561,-0.17706887423992157
1729115013124555300,25.20255517578125,9.896415710449219,-0.08823533356189728,-0.1698904037475586
1729115013162489900,25.24048974609375,9.884450912475586,-0.10019944608211517,-0.16271193325519562
1729115013200424400,25.278424560546874,9.905986785888672,-0.09062815457582474,-0.17946170270442963
1729115013238359000,25.316359130859375,9.896415710449219,-0.10259227454662323,-0.1818545162677765
1729115013276293600,25.354293701171876,9.884450912475586,-0.10498509556055069,-0.17228323221206665
1729115013314228200,25.392228271484374,9.896415710449219,-0.10259227454662323,-0.1698904037475586
1729115013352162800,25.430162841796875,9.882058143615723,-0.10498509556055069,-0.16271193325519562
1729115013390097400,25.468097412109376,9.908379554748535,-0.10498509556055069,-0.16749759018421173
1729115013428032000,25.506031982421874,9.891630172729492,-0.09780662506818771,-0.17706887423992157
1729115013465966600,25.543966552734375,9.88684368133545,-0.10498509556055069,-0.17706887423992157
1729115013503901200,25.581901123046876,9.855737686157227,-0.09541380405426025,-0.1698904037475586
1729115013541835800,25.619835693359374,9.937093734741211,0.01704886183142662,-0.1866401731967926
1729115013579770400,25.657770263671875,9.939486503601074,0.2682952284812927,-0.2105683982372284
1729115013617705000,25.695705078125,9.929914474487305,0.6993024349212646,-0.19621145725250244
1729115013655639600,25.7336396484375,9.903594017028809,1.0680961608886719,-0.062213387340307236
1729115013693574100,25.77157421875,9.807881355285645,1.5254244804382324,-0.3517449200153351
1729115013731508700,25.8095087890625,9.688240051269531,1.8963119983673096,-0.22013968229293823
1729115013769443300,25.847443359375,10.083354949951172,2.0039889812469482,0.23718854784965515
1729115013807378000,25.8853779296875,10.126425743103027,1.9130617380142212,-0.1698904037475586
1729115013845312500,25.9233125,9.87248706817627,2.1382861137390137,-0.14356936514377594
1729115013883247400,25.961247314453125,9.805487632751465,1.9441684484481812,-0.16271193325519562
1729115013921182000,25.999181884765626,10.394421577453613,1.812563180923462,-0.03349951654672623
1729115013959116500,26.037116455078124,11.031211853027344,1.4895321130752563,0.2946162819862366
1729115013997051100,26.075051025390625,11.325827598571777,2.1000008583068848,0.05742774158716202
1729115014034985700,26.11298583984375,7.404290676116943,2.6458635330200195,-0.14117653667926788
1729115014072920300,26.15092041015625,7.624430179595947,2.5450658798217773,0.5602195858955383
1729115014110855000,26.18885498046875,10.423135757446289,2.0330018997192383,0.20129621028900146
1729115014148789500,26.22678955078125,9.195018768310547,2.2962124347686768,-0.13878370821475983
1729115014186724000,26.26472412109375,12.520444869995117,1.7623138427734375,1.3767703771591187
1729115014224658700,26.30265869140625,10.681859016418457,1.410269856452942,-0.6798607110977173
1729115014262593300,26.34059326171875,9.388837814331055,2.0210378170013428,0.24436701834201813
1729115014300527900,26.37852783203125,14.251352310180664,1.2164511680603027,0.524327278137207
1729115014338462500,26.41646240234375,9.362516403198242,1.1805589199066162,-0.35413774847984314
1729115014376397000,26.45439697265625,6.877570629119873,2.3033909797668457,-0.44027936458587646
1729115014414331600,26.49233154296875,12.209078788757324,0.9388837814331055,-0.016749758273363113
1729115014452266200,26.530266357421876,7.3277201652526855,2.370389938354492,0.3927220106124878
1729115014490200800,26.568200927734374,8.54865837097168,1.3911272287368774,-0.9837492108345032
1729115014528135400,26.606135498046875,11.304292678833008,0.584446907043457,-0.20578274130821228
1729115014566070000,26.644070068359376,5.103591442108154,1.20687997341156,0.30658039450645447
1729115014604004600,26.682004638671874,9.474979400634766,0.6849454641342163,-0.8090731501579285
1729115014641939200,26.719939208984375,11.883654594421387,0.4097708761692047,0.18454644083976746
1729115014679873800,26.757873779296876,8.644371032714844,0.5676971673965454,-0.04307080805301666
1729115014717808400,26.795808349609374,11.153244972229004,-0.641276478767395,-1.0773683786392212
1729115014755743000,26.833742919921875,7.373183727264404,0.2682952284812927,-0.7731808423995972
1729115014793677600,26.871677490234376,10.985748291015625,0.9484550952911377,0.7878368496894836
1729115014831612200,26.909612060546873,9.487242698669434,-0.22223339974880219,-0.921535849571228
1729115014869546800,26.947546630859375,9.901201248168945,-0.45942193269729614,-1.40279221534729
1729115014907481300,26.9854814453125,9.544670104980469,0.1175474151968956,-0.8832506537437439
1729115014945416000,27.023416015625,6.606882572174072,-0.4737788736820221,-2.0635104179382324
1729115014983350500,27.0613505859375,12.087044715881348,-0.36610186100006104,-1.4075778722763062
1729115015021285400,27.099285400390624,10.26042366027832,0.4863412082195282,-0.8090731501579285
1729115015059220000,27.137219970703125,7.7129645347595215,-0.13130614161491394,-2.2815563678741455
1729115015097154600,27.175154541015626,11.929118156433105,-0.7417750358581543,-0.6224330067634583
1729115015135089200,27.213089111328124,9.661918640136719,-0.09541380405426025,-2.3294129371643066
1729115015173023700,27.251023681640625,10.581061363220215,0.4456632137298584,-2.9374887943267822
1729115015210958300,27.288958251953126,4.2224345207214355,0.6083751320838928,-2.7484560012817383
1729115015248893000,27.326892822265624,9.793523788452148,-1.5391831398010254,-0.7731808423995972
1729115015286827500,27.36482763671875,9.472586631774902,-0.5312066078186035,-2.293520450592041
1729115015324762000,27.40276220703125,8.309076309204102,1.3624134063720703,-1.5032907724380493
1729115015362696700,27.44069677734375,11.565110206604004,-1.1560324430465698,-1.0199406147003174
1729115015400631300,27.47863134765625,9.771988868713379,-1.1129616498947144,-0.5769693851470947
1729115015438566000,27.51656591796875,9.053842544555664,-0.7178468108177185,-0.9574281573295593
1729115015476500500,27.55450048828125,10.439885139465332,-0.7345965504646301,-1.4889339208602905
1729115015514435000,27.59243505859375,8.366803169250488,-0.13130614161491394,-1.445863127708435
1729115015552369700,27.63036962890625,10.387243270874023,-1.1560324430465698,-0.4549354016780853
1729115015590304300,27.66830419921875,10.322636604309082,0.3810569941997528,-1.8888343572616577
1729115015628238800,27.70623876953125,7.7368927001953125,-0.5240281820297241,-2.372483730316162
1729115015666173400,27.74417333984375,13.06391429901123,-0.46899324655532837,-1.6208382844924927
1729115015704108000,27.78210791015625,9.702596664428711,1.4270195960998535,-2.293520450592041
1729115015742042600,27.820042724609376,8.325826644897461,1.4030914306640625,-2.4562325477600098
1729115015779977200,27.857977294921874,9.151947975158691,-0.38285163044929504,-1.5152549743652344
1729115015817912000,27.895912109375,7.128817081451416,0.7112665176391602,-1.6184453964233398
1729115015855846400,27.933846435546876,10.425528526306152,-0.1217348501086235,-2.159522533416748
1729115015893781000,27.971781005859373,10.945070266723633,-0.1504487246274948,-1.8864415884017944
1729115015931715800,28.0097158203125,8.045866012573242,1.415055513381958,-1.5391831398010254
1729115015969650400,28.047650390625,12.41276741027832,-0.8760721683502197,-0.19621145725250244
1729115016007585000,28.0855849609375,9.597312927246094,-0.6867401003837585,0.2515454888343811
1729115016045519600,28.12351953125,5.366802215576172,-0.07627122104167938,-0.30628129839897156
1729115016083454200,28.1614541015625,12.95384407043457,-0.9430712461471558,0.1701895147562027
1729115016121388800,28.199388916015625,10.803893089294434,0.6658028960227966,0.1582254022359848
1729115016159323400,28.237323486328126,5.02223539352417,0.5030909776687622,-0.2799602448940277
1729115016197258000,28.275258056640624,11.24207878112793,-1.3354941606521606,0.4692923426628113
1729115016235192600,28.313192626953125,8.304290771484375,0.6729813814163208,-0.37088751792907715
1729115016273127200,28.351127197265626,11.155638694763184,0.27308088541030884,0.11006984114646912
1729115016311061800,28.389061767578124,10.53799057006836,0.029012974351644516,0.5338985323905945
1729115016348996400,28.426996337890625,8.78794002532959,0.34995031356811523,0.25633111596107483
1729115016386931000,28.464930908203126,10.873285293579102,-1.0483554601669312,1.0079765319824219
1729115016424865500,28.502865478515623,6.465705871582031,0.25393831729888916,0.6873382925987244
1729115016462800100,28.540800048828125,6.281458377838135,0.06011966988444328,0.6032904386520386
1729115016500734700,28.578734619140626,11.579466819763184,-1.2373883724212646,1.8388842344284058
1729115016538669300,28.61666943359375,9.83420181274414,0.30658039450645447,1.561017632484436
1729115016576604000,28.65460400390625,7.488039493560791,0.014656038954854012,0.802193820476532
1729115016614538500,28.69253857421875,11.450254440307617,-1.1225329637527466,1.3408780097961426
1729115016652473000,28.73047314453125,6.2240309715271,-0.6436693072319031,2.7819554805755615
1729115016690408000,28.768407958984376,11.962617874145508,-1.1703894138336182,2.832204818725586
1729115016728342500,28.806342529296874,8.914759635925293,-0.9669994711875916,2.1092731952667236
1729115016766277000,28.844277099609375,13.403695106506348,-1.227817177772522,2.5594229698181152
1729115016804211700,28.882211669921876,12.599407196044922,-1.500898003578186,2.887239694595337
1729115016842146300,28.920146240234374,7.287042140960693,-0.1456630825996399,2.3632113933563232
1729115016880081000,28.958080810546875,13.185948371887207,-0.20548364520072937,2.6264219284057617
1729115016918015500,28.996015380859376,11.850154876708984,-0.8186444640159607,2.173879384994507
1729115016955950000,29.0339501953125,10.339386940002441,0.828514814376831,1.8963119983673096
1729115016993884700,29.071884765625,9.396016120910645,-0.4737788736820221,8.372187614440918
1729115017031819300,29.1098193359375,11.965010643005371,-2.0802602767944336,6.524031162261963
1729115017069753900,29.14775390625,18.29970932006836,-0.9454640746116638,4.683053016662598
1729115017107688400,29.1856884765625,10.248459815979004,-0.04995017126202583,4.73090934753418
1729115017145623000,29.223623046875,7.41625452041626,0.28504499793052673,2.1379871368408203
1729115017183557600,29.2615576171875,11.919547080993652,0.07926224917173386,3.9502511024475098
1729115017221492200,29.2994921875,14.904891967773438,0.4049852192401886,3.6320056915283203
1729115017259426800,29.3374267578125,5.848058700561523,0.06251249462366104,2.5785655975341797
1729115017297361400,29.375361328125,10.806285858154297,0.34995031356811523,3.442673683166504
1729115017335296000,29.4132958984375,9.896415710449219,0.39541393518447876,3.6822550296783447
1729115017373230800,29.45123095703125,11.409576416015625,0.6658028960227966,3.2057840824127197
1729115017411165400,29.48916552734375,8.749654769897461,0.22043879330158234,0.16540385782718658
1729115017449100000,29.52710009765625,11.948260307312012,-0.8018946647644043,0.3568296730518341
1729115017487034600,29.56503466796875,7.864011764526367,-0.48813581466674805,0.5937191247940063
1729115017524969200,29.60296923828125,7.605287551879883,-0.349352091550827,0.8955138921737671
1729115017562903800,29.64090380859375,11.165508270263672,-1.1033903360366821,1.0342975854873657
1729115017600838400,29.67883837890625,10.935498237609863,-2.0084755420684814,0.8524430394172668
1729115017638773000,29.71677294921875,9.41037368774414,-1.409970760345459,1.3432707786560059
1729115017676707600,29.75470751953125,9.566205978393555,-0.5527420043945312,-1.5463616847991943
1729115017714642200,29.79264208984375,11.59382438659668,-2.5950162410736084,-3.3852458000183105
1729115017752576800,29.83057666015625,8.170292854309082,-2.1592233180999756,-1.1539387702941895
1729115017790511400,29.868511474609374,11.019247055053711,-1.4673985242843628,0.7758727669715881
1729115017828446000,29.906446044921875,8.80469036102295,-1.6253247261047363,-0.5769693851470947
1729115017866380500,29.944380615234376,10.566704750061035,-1.9773688316345215,-0.32542386651039124
1729115017904315100,29.982315185546874,8.864510536193848,-1.8478572368621826,0.16301104426383972
1729115017942249700,30.020249755859375,10.504491806030273,-2.3650059700012207,-0.5386841893196106
1729115017980184300,30.058184326171876,9.87248706817627,-2.0252251625061035,-0.3924229145050049
1729115018018119000,30.096118896484374,8.790332794189453,-1.9510477781295776,-0.7564310431480408
1729115018056053800,30.1340537109375,10.954641342163086,-2.475374937057495,0.6535396575927734
1729115018093988400,30.17198828125,9.570991516113281,-1.9725831747055054,0.6897311210632324
1729115018131923000,30.2099228515625,10.028020858764648,-1.8717855215072632,-0.13639089465141296
1729115018169857500,30.247857421875,9.798309326171875,-2.1041884422302246,-0.4956133961677551
1729115018207792000,30.285792236328124,10.346565246582031,-2.2070798873901367,0.134297177195549
1729115018245726700,30.323726806640625,9.817452430725098,-2.20947265625,-0.038285162299871445
1729115018283661300,30.361661376953126,9.805487632751465,-2.343470573425293,-0.17946170270442963
1729115018321596000,30.399595947265624,9.894022941589355,-2.0252251625061035,0.0526420995593071
1729115018359530500,30.437530517578125,9.980164527893066,-1.7186448574066162,0.1534397453069687
1729115018397465000,30.475465087890626,9.84855842590332,-1.3354941606521606,-0.18424734473228455
1729115018435399700,30.513399658203124,9.9442720413208,-0.8952147960662842,-0.014356935396790504
1729115018473334300,30.551334228515625,9.870094299316406,-0.47617170214653015,-0.07657032459974289
1729115018511268900,30.589268798828126,9.896415710449219,-0.16959130764007568,-0.07896314561367035
1729115018549203500,30.627203369140624,9.88684368133545,0.1175474151968956,-0.09092725813388824
1729115018587138000,30.665137939453125,9.905986785888672,0.15104693174362183,-0.12921242415905
1729115018625072600,30.70307275390625,9.889236450195312,0.06011966988444328,-0.15074782073497772
1729115018663007200,30.74100732421875,9.903594017028809,0.17736798524856567,0.04307080805301666
1729115018700941800,30.77894189453125,9.88684368133545,0.17976079881191254,-0.21774685382843018
1729115018738876700,30.816876708984374,9.915557861328125,0.06251249462366104,-0.05503492057323456
1729115018776811300,30.854811279296875,9.896415710449219,-0.018843477591872215,-0.1052841991186142
1729115018814745900,30.892745849609376,9.908379554748535,-0.11694920808076859,-0.08853443711996078
1729115018852680400,30.930680419921874,9.88684368133545,-0.18873389065265656,-0.0933200865983963
1729115018890615000,30.968614990234375,9.905986785888672,-0.23449662327766418,-0.09092725813388824
1729115018928549600,31.006549560546876,9.87966537475586,-0.26560330390930176,-0.08374879509210587
1729115018966484200,31.044484130859374,9.910772323608398,-0.27038896083831787,-0.09571290761232376
1729115019004418800,31.082418701171875,9.882058143615723,-0.2632105052471161,-0.08135596662759781
1729115019042353400,31.120353515625,9.910772323608398,-0.22971096634864807,-0.09571290761232376
1729115019080288000,31.1582880859375,9.88684368133545,-0.16959130764007568,-0.10049854964017868
1729115019118222600,31.19622265625,9.905986785888672,-0.11694920808076859,-0.1052841991186142
1729115019156157200,31.2341572265625,9.896415710449219,-0.09062815457582474,-0.10767702013254166
1729115019194091800,31.272091796875,9.896415710449219,-0.08823533356189728,-0.11246266216039658
1729115019232026400,31.3100263671875,9.891630172729492,-0.11216355860233307,-0.08614161610603333
1729115019269961200,31.347961181640624,9.901201248168945,-0.16959130764007568,-0.1052841991186142
1729115019307895800,31.385895751953125,9.896415710449219,-0.17916259169578552,-0.09092725813388824
1729115019345830400,31.423830322265626,9.891630172729492,-0.20548364520072937,-0.09571290761232376
1729115019383765000,31.461764892578124,9.889236450195312,-0.19591236114501953,-0.10049854964017868
1729115019421699600,31.499699462890625,9.910772323608398,-0.17676977813243866,-0.08614161610603333
1729115019459634200,31.53763427734375,9.884450912475586,-0.16959130764007568,-0.1052841991186142
1729115019497568800,31.57556884765625,9.910772323608398,-0.1576271951198578,-0.08853443711996078
1729115019535503400,31.61350341796875,9.884450912475586,-0.16002000868320465,-0.08853443711996078
1729115019573438000,31.65143798828125,9.908379554748535,-0.1743769496679306,-0.10767702013254166
1729115019611372500,31.68937255859375,9.891630172729492,-0.1743769496679306,-0.11006984114646912
1729115019649307100,31.72730712890625,9.903594017028809,-0.16480566561222076,-0.08374879509210587
1729115019687241700,31.76524169921875,9.901201248168945,-0.16959130764007568,-0.10049854964017868
1729115019725176300,31.80317626953125,9.901201248168945,-0.16959130764007568,-0.07896314561367035
1729115019763111000,31.84111083984375,9.896415710449219,-0.1576271951198578,-0.0933200865983963
1729115019801045500,31.87904541015625,9.920343399047852,-0.14805589616298676,-0.004785645287483931
1729115019838980000,31.91697998046875,10.018449783325195,-0.02841476909816265,0.1295115202665329
1729115019876914700,31.954914794921876,9.472586631774902,-0.19112670421600342,0.10049854964017868
1729115019914849500,31.992849609375,10.12881851196289,-0.14327025413513184,0.5482555031776428
1729115019952784100,32.0307841796875,9.743274688720703,-0.1983051747083664,0.7208378314971924
1729115019990718700,32.06871875,9.977771759033203,-0.21744775772094727,0.924227774143219
1729115020028653300,32.1066533203125,9.736096382141113,-0.20548364520072937,0.9122636318206787
1729115020066588000,32.144587890625,9.905986785888672,-0.30628129839897156,0.8763712644577026
1729115020104522500,32.1825224609375,9.882058143615723,-0.46899324655532837,1.0941181182861328
1729115020142457000,32.22045703125,10.066604614257812,-0.5647061467170715,0.35443684458732605
1729115020180391700,32.2583916015625,10.018449783325195,-0.5168496966362,0.24197418987751007
1729115020218326300,32.296326171875,9.961021423339844,-0.7082754969596863,-0.3445664644241333
1729115020256260900,32.3342607421875,10.619646072387695,-0.8186444640159607,-0.18903298676013947
1729115020294195500,32.37219555664063,9.82702350616455,-0.24646073579788208,0.02632104977965355
1729115020332130000,32.41013012695313,10.320243835449219,-0.7680960893630981,-0.5817549824714661
1729115020370064600,32.44806469726562,9.961021423339844,-0.39481574296951294,-0.059820566326379776
1729115020407999200,32.48599926757812,9.779167175292969,-0.41156548261642456,-0.4139583110809326
1729115020445934000,32.52393408203125,9.786345481872559,-0.27756741642951965,0.1989033818244934
1729115020483868700,32.56186865234375,9.905986785888672,-0.33020952343940735,-0.10289137065410614
1729115020521803300,32.59980322265625,9.87248706817627,-0.2392822653055191,0.20129621028900146
1729115020559737900,32.63773779296875,9.905986785888672,-0.1217348501086235,0.5889334678649902
1729115020597672400,32.67567236328125,10.04985523223877,-0.5359922647476196,-0.13160525262355804
1729115020635607000,32.71360693359375,9.736096382141113,-0.31106695532798767,-0.02871387079358101
1729115020673541600,32.751541748046876,9.932307243347168,-0.4043870270252228,-0.07178468257188797
1729115020711476200,32.78947631835938,9.932307243347168,-0.2584248483181,0.3975076675415039
1729115020749410800,32.82741088867188,9.767203330993652,-0.27756741642951965,-0.04785645380616188
1729115020787345400,32.86534545898437,9.99691390991211,-0.45224347710609436,0.13668999075889587
1729115020825280000,32.90328002929687,9.949057579040527,-0.2584248483181,0.40229329466819763
1729115020863214600,32.941214599609374,9.752845764160156,-0.349352091550827,-0.12203395366668701
1729115020901149200,32.979149169921875,9.884450912475586,-0.13848461210727692,0.2826521694660187
1729115020939084000,33.017083984375,9.683454513549805,-0.2273181527853012,-0.14356936514377594
1729115020977018600,33.0550185546875,10.025628089904785,-0.16959130764007568,0.33050861954689026
1729115021014953200,33.092953125,9.731310844421387,-0.24167509377002716,-0.09571290761232376
1729115021052887800,33.1308876953125,9.963414192199707,-0.3445664644241333,-0.5362913608551025
1729115021090822400,33.168822509765626,9.731310844421387,-0.17916259169578552,-1.0630114078521729
1729115021128757000,33.20675708007813,9.472586631774902,-0.03559323772788048,-1.067797064781189
1729115021166691600,33.24469165039063,10.0040922164917,-0.07148557901382446,-1.4243277311325073
1729115021204626200,33.28262622070312,9.793523788452148,0.014656038954854012,-0.9909276962280273
1729115021242560800,33.32056079101562,10.133604049682617,0.01704886183142662,-0.88803631067276
1729115021280495400,33.358495361328124,9.891630172729492,0.11515458673238754,-0.5506483316421509
1729115021318430000,33.396429931640625,9.805487632751465,0.2587239444255829,0.30179476737976074
1729115021356364500,33.43436450195313,9.961021423339844,0.20368902385234833,-0.1986042857170105
1729115021394299100,33.47229907226563,9.843772888183594,0.18454644083976746,-0.10049854964017868
1729115021432233700,33.51023364257812,9.874879837036133,0.17736798524856567,-0.08614161610603333
1729115021470168600,33.54816845703125,9.882058143615723,0.16301104426383972,-0.1866401731967926
1729115021508103000,33.58610302734375,9.913165092468262,0.17736798524856567,-0.06699903309345245
1729115021546037800,33.62403784179688,9.894022941589355,0.1821536272764206,-0.17706887423992157
1729115021583972400,33.66197241210938,9.898808479309082,0.17736798524856567,-0.062213387340307236
1729115021621907000,33.69990698242187,9.889236450195312,0.1701895147562027,-0.16271193325519562
1729115021659841500,33.73784155273437,9.901201248168945,0.16301104426383972,-0.0933200865983963
1729115021697776000,33.775776123046874,9.896415710449219,0.1582254022359848,-0.15314064919948578
1729115021735710700,33.813710693359376,9.898808479309082,0.17497515678405762,-0.1052841991186142
1729115021773645300,33.85164526367188,9.896415710449219,0.16061821579933167,-0.1339980661869049
1729115021811580000,33.88957983398438,9.903594017028809,0.1582254022359848,-0.11246266216039658
1729115021849514500,33.92751440429687,9.889236450195312,0.1534397453069687,-0.12442677468061447
1729115021887449000,33.96544897460937,9.889236450195312,0.16779668629169464,-0.11246266216039658
1729115021925383700,34.0033837890625,9.894022941589355,0.16540385782718658,-0.12203395366668701
1729115021963318300,34.041318359375,9.88684368133545,0.1869392693042755,-0.10049854964017868
1729115022001252900,34.0792529296875,9.917950630187988,0.16779668629169464,-0.11964113265275955
1729115022039187700,34.11718774414062,9.889236450195312,0.17258232831954956,-0.11485548317432404
1729115022077122300,34.15512231445312,9.903594017028809,0.17497515678405762,-0.12442677468061447
1729115022115057000,34.193056884765625,9.877272605895996,0.17736798524856567,-0.11246266216039658
1729115022152991500,34.230991455078126,9.898808479309082,0.1701895147562027,-0.11485548317432404
1729115022190926000,34.26892602539063,9.894022941589355,0.1701895147562027,-0.11964113265275955
1729115022228860700,34.30686059570313,9.896415710449219,0.17497515678405762,-0.11964113265275955
1729115022266795300,34.34479516601562,9.889236450195312,0.16301104426383972,-0.11964113265275955
1729115022304729900,34.38272973632812,9.889236450195312,0.17497515678405762,-0.12442677468061447
1729115022342664400,34.42066455078125,9.901201248168945,0.17497515678405762,-0.11246266216039658
1729115022380599000,34.45859912109375,9.884450912475586,0.17258232831954956,-0.12681959569454193
1729115022418533600,34.49653369140625,9.88684368133545,0.1869392693042755,-0.11485548317432404
1729115022456468200,34.53446826171875,9.901201248168945,0.16540385782718658,-0.12681959569454193
1729115022494402800,34.57240283203125,9.891630172729492,0.17258232831954956,-0.11964113265275955
1729115022532337700,34.610337646484375,9.891630172729492,0.16301104426383972,-0.12921242415905
1729115022570272300,34.648272216796876,9.884450912475586,0.1701895147562027,-0.12681959569454193
1729115022608206800,34.68620678710938,9.898808479309082,0.16779668629169464,-0.12203395366668701
1729115022646141400,34.72414135742188,9.896415710449219,0.17258232831954956,-0.12681959569454193
1729115022684076000,34.76207592773437,9.901201248168945,0.16061821579933167,-0.11964113265275955
1729115022722010600,34.8000107421875,9.905986785888672,0.16301104426383972,-0.12203395366668701
1729115022759945200,34.8379453125,9.896415710449219,0.16061821579933167,-0.11485548317432404
1729115022797879800,34.8758798828125,9.910772323608398,0.16540385782718658,-0.12203395366668701
1729115022835814400,34.913814453125,9.891630172729492,0.16779668629169464,-0.11724831163883209
1729115022873749000,34.9517490234375,9.898808479309082,0.1701895147562027,-0.12442677468061447
1729115022911683600,34.98968359375,9.894022941589355,0.16301104426383972,-0.1459621787071228
1729115022949618200,35.0276181640625,9.891630172729492,0.1701895147562027,-0.1052841991186142
1729115022987552800,35.065552734375,9.894022941589355,0.16540385782718658,-0.12681959569454193
1729115023025487600,35.10348754882813,9.891630172729492,0.16779668629169464,-0.11246266216039658
1729115023063422200,35.14142211914063,9.898808479309082,0.17736798524856567,-0.11964113265275955
1729115023101356800,35.17935668945312,9.889236450195312,0.17976079881191254,-0.11964113265275955
1729115023139291400,35.21729150390625,9.894022941589355,0.1821536272764206,-0.11006984114646912
1729115023177226000,35.25522607421875,9.896415710449219,0.1701895147562027,-0.11246266216039658
1729115023215160600,35.29316064453125,9.891630172729492,0.16301104426383972,-0.12921242415905
1729115023253095200,35.33109521484375,9.891630172729492,0.16779668629169464,-0.12442677468061447
1729115023291029800,35.36902978515625,9.922736167907715,0.12472587823867798,-0.35413774847984314
1729115023328964400,35.40696435546875,9.836594581604004,0.24915266036987305,0.08614161610603333
1729115023366899000,35.44489892578125,9.707382202148438,0.20368902385234833,0.0023928226437419653
1729115023404833500,35.48283349609375,9.829416275024414,0.23240290582180023,-0.17228323221206665
1729115023442768100,35.52076806640625,9.862915992736816,0.6705885529518127,-0.14356936514377594
1729115023480702700,35.55870263671875,9.862915992736816,1.013061285018921,-0.13639089465141296
1729115023518637600,35.59663745117187,9.74088191986084,1.5254244804382324,-0.007178467698395252
1729115023556572200,35.634572265625,9.642776489257812,1.848455548286438,-0.02871387079358101
1729115023594506800,35.6725068359375,10.159924507141113,1.8388842344284058,-0.02392822690308094
1729115023632441300,35.71044140625,9.745667457580566,1.8460626602172852,-0.0526420995593071
1729115023670376000,35.7483759765625,10.071390151977539,1.8771693706512451,-0.4788636267185211
1729115023708310500,35.786310546875,9.573384284973145,1.7694923877716064,-0.4259224236011505
1729115023746245000,35.8242451171875,11.215758323669434,1.7623138427734375,0.8380861282348633
1729115023784179700,35.8621796875,9.822237968444824,1.3217353820800781,0.643968403339386
1729115023822114300,35.9001142578125,11.850154876708984,1.7359927892684937,-0.031106693670153618
1729115023860049000,35.938048828125,9.915557861328125,2.1143579483032227,-0.23210379481315613
1729115023897983500,35.9759833984375,9.736096382141113,1.9896320104599,-0.02153540402650833
1729115023935918000,36.01391796875,10.403992652893066,1.6211373805999756,-0.1818545162677765
1729115023973853000,36.05185302734375,10.169496536254883,1.8963119983673096,0.13190434873104095
1729115024011787500,36.08978759765625,10.51645565032959,1.8867406845092773,-0.2392822653055191
1729115024049722000,36.12772216796875,7.864011764526367,2.23639178276062,0.25393831729888916
1729115024087656700,36.16565673828125,11.045568466186523,2.39192533493042,-0.4573282301425934
1729115024125591300,36.20359130859375,7.0857462882995605,2.5594229698181152,-0.064606212079525
1729115024163526000,36.24152587890625,14.093426704406738,1.2140583992004395,0.5386841893196106
1729115024201460500,36.27946044921875,12.22822093963623,1.3360923528671265,0.6729813814163208
1729115024239395000,36.31739501953125,8.625227928161621,3.0167510509490967,-0.4501497745513916
1729115024277329700,36.35532958984375,10.597811698913574,1.7838492393493652,0.07657032459974289
1729115024315264300,36.39326416015625,10.06421184539795,1.8819550275802612,-0.26560330390930176
1729115024353198800,36.43119873046875,10.566704750061035,1.5014961957931519,0.9672985672950745
1729115024391133400,36.469133544921874,10.13599681854248,1.3336994647979736,-0.5195416212081909
1729115024429068000,36.507068115234375,8.560622215270996,1.657029628753662,-0.643968403339386
1729115024467003000,36.5450029296875,10.703394889831543,0.20608185231685638,1.7404793500900269
1729115024504937500,36.5829375,6.832107067108154,1.1015957593917847,-1.0534402132034302
1729115024542872000,36.6208720703125,7.933403491973877,1.3863415718078613,-1.0845468044281006
1729115024580806700,36.658806640625,8.256434440612793,0.04576273262500763,0.8835497498512268
1729115024618741200,36.6967412109375,11.400005340576172,-0.17198412120342255,1.0558329820632935
1729115024656675800,36.73467578125,6.846463680267334,-0.004486542660742998,1.1611171960830688
1729115024694610400,36.7726103515625,10.28195858001709,-0.9239286184310913,1.848455548286438
1729115024732545000,36.810544921875,6.209673881530762,-0.7178468108177185,2.2671995162963867
1729115024770479600,36.84847973632812,12.831511497497559,-1.165603756904602,3.4235310554504395
1729115024808414200,36.886414306640624,8.953344345092773,0.036191441118717194,1.9992033243179321
1729115024846348800,36.924348876953125,10.959426879882812,-0.9334999322891235,2.063809633255005
1729115024884283400,36.96228344726563,12.11815071105957,-0.12412767112255096,2.2025933265686035
1729115024922218200,37.00021826171875,2.0294127464294434,1.108774185180664,0.8763712644577026
1729115024960152800,37.03815283203125,7.6890363693237305,0.3281157910823822,6.524031162261963
1729115024998087400,37.07608740234375,11.289935111999512,-0.4905286431312561,6.179165363311768
1729115025036022000,37.11402197265625,11.237293243408203,0.1175474151968956,2.5067808628082275
1729115025073956600,37.15195654296875,10.162318229675293,-1.1799606084823608,3.067000389099121
1729115025111891200,37.18989111328125,12.158828735351562,0.17736798524856567,1.7835501432418823
1729115025149825800,37.22782568359375,5.881557941436768,0.23240290582180023,0.21326032280921936
1729115025187760400,37.26576049804687,11.443076133728027,-0.6245267391204834,0.706480860710144
1729115025225695000,37.303695068359374,11.055139541625977,0.5222335457801819,1.2161520719528198
1729115025263629600,37.341629638671876,6.853642463684082,1.0369895696640015,1.194616675376892
1729115025301564200,37.37956420898438,13.717453956604004,0.01944168470799923,1.3432707786560059
1729115025339498800,37.41749877929688,8.78794002532959,-1.7306089401245117,-2.403590440750122
1729115025377433300,37.45543334960937,9.451051712036133,-3.1743783950805664,-3.4474592208862305
1729115025415368200,37.4933681640625,10.842178344726562,-2.4343979358673096,-2.9853453636169434
1729115025453302800,37.531302734375,10.777572631835938,-2.439183473587036,-0.7277171611785889
1729115025491237400,37.5692373046875,10.14317512512207,-1.9028922319412231,-1.6375880241394043
1729115025529172000,37.607171875,7.351648330688477,-0.7322037220001221,-2.638087034225464
1729115025567106600,37.6451064453125,9.42473030090332,-2.7290141582489014,-2.3437697887420654
1729115025605041200,37.68304125976562,14.325530052185059,-1.4267204999923706,-2.2360928058624268
1729115025642975700,37.720975830078125,6.001199245452881,-2.8654050827026367,-4.876572608947754
1729115025680910300,37.758910400390626,11.835798263549805,-0.9957132935523987,-4.050749778747559
1729115025718845000,37.79684497070313,7.275078296661377,-0.23688943684101105,-5.681159019470215
1729115025756779500,37.83477954101563,9.941879272460938,-0.5096712112426758,-3.028416156768799
1729115025794714000,37.87271411132812,10.418350219726562,-0.6029912829399109,-4.893322467803955
1729115025832648700,37.91064868164062,8.962915420532227,-0.4785645306110382,-5.089832782745361
1729115025870583600,37.94858349609375,12.396018028259277,-1.6803597211837769,-4.754538536071777
1729115025908518100,37.98651806640625,8.22293472290039,-0.045164529234170914,-4.153641223907471
1729115025946452700,38.02445263671875,10.796714782714844,-1.5846468210220337,-3.397209882736206
1729115025984387300,38.06238720703125,9.822237968444824,1.1901301145553589,-4.603790760040283
1729115026022322000,38.100322021484374,4.909473896026611,1.410269856452942,-3.7704901695251465
1729115026060256500,38.138256591796875,10.179067611694336,0.09361918270587921,-2.030010938644409
1729115026098191000,38.176191162109376,12.132508277893066,0.05294119939208031,-2.092224359512329
1729115026136125700,38.21412573242188,6.6020965576171875,1.6235301494598389,-2.444268226623535
1729115026174060300,38.25206030273438,10.830214500427246,1.135095238685608,-0.16031911969184875
1729115026211995000,38.28999487304687,12.877274513244629,1.0106685161590576,-0.21774685382843018
1729115026249929500,38.32792944335937,5.369194984436035,1.7240287065505981,-1.134796142578125
1729115026287864000,38.365864013671874,13.262518882751465,-0.045164529234170914,-1.319043517112732
1729115026325799000,38.403798828125,8.460124015808105,0.20608185231685638,-0.5434698462486267
1729115026363733500,38.4417333984375,9.039485931396484,1.0609177350997925,4.125226020812988
1729115026401668000,38.47966821289062,7.954938888549805,0.2802593410015106,1.079761266708374
1729115026439602700,38.517602783203124,11.222936630249023,0.3978067636489868,-0.13639089465141296
1729115026477537300,38.555537353515625,8.13679313659668,-0.49292147159576416,-0.7372884750366211
1729115026515472000,38.593471923828126,9.559027671813965,0.8045865893363953,0.064606212079525
1729115026553406500,38.63140649414063,9.427123069763184,-0.4139583110809326,0.2515454888343811
1729115026591341000,38.66934106445313,10.992926597595215,-0.20548364520072937,-0.28235307335853577
1729115026629275600,38.70727563476562,5.819344520568848,-0.9598209857940674,-0.6367899179458618
1729115026667210200,38.74521020507812,14.816357612609863,-0.6101697683334351,0.1295115202665329
1729115026705144800,38.783144775390625,9.113663673400879,0.16301104426383972,0.6655037999153137
1729115026743079400,38.821079345703126,10.610074996948242,0.9101698994636536,0.6224330067634583
1729115026781014300,38.85901416015625,10.356136322021484,0.2826521694660187,-0.1698904037475586
1729115026818948900,38.89694897460937,11.78554916381836,-1.189531922340393,1.043868899345398
1729115026856883500,38.934883544921874,9.22134017944336,-1.3692927360534668,0.7830511927604675
1729115026894818000,38.972818115234375,10.80150032043457,-1.2373883724212646,1.92741858959198
1729115026932752600,39.010752685546876,10.171889305114746,-0.28953152894973755,2.2241287231445312
1729115026970687200,39.04868725585938,9.518349647521973,-1.0459625720977783,1.9298114776611328
1729115027008621800,39.08662182617188,12.22104263305664,-1.5439687967300415,3.0287153720855713
1729115027046556400,39.12455639648437,6.64277458190918,-0.854536771774292,2.0135602951049805
1729115027084491000,39.162490966796874,10.913963317871094,-1.2804591655731201,2.6958138942718506
1729115027122425600,39.200425537109375,9.917950630187988,-2.1831514835357666,2.8298118114471436
1729115027160360200,39.238360107421876,13.829916954040527,-1.06271231174469,1.8652052879333496
1729115027198294800,39.27629467773438,6.051448345184326,1.0920244455337524,2.652743101119995
1729115027236229600,39.31422973632812,8.850153923034668,-0.5527420043945312,9.69631576538086
1729115027274164200,39.352164306640624,5.848058700561523,1.0034899711608887,6.471388816833496
1729115027312098800,39.390098876953125,7.571788311004639,-2.068295955657959,2.1236300468444824
1729115027350033400,39.428033447265626,15.757335662841797,-2.1568305492401123,5.992525100708008
1729115027387968000,39.46596801757813,13.248161315917969,-0.5982056856155396,3.459423303604126
1729115027425902600,39.50390258789062,3.0852456092834473,1.4270195960998535,2.525923490524292
1729115027463837200,39.54183715820312,12.489337921142578,0.08644071966409683,4.510470867156982
1729115027501771800,39.579771728515624,11.768798828125,-0.7178468108177185,4.979763031005859
1729115027539706400,39.617706298828125,13.013665199279785,0.582054078578949,2.753241539001465
1729115027577641000,39.655640869140626,6.398706912994385,1.1829516887664795,2.887239694595337
1729115027615575600,39.69357543945313,12.841082572937012,0.9939187169075012,3.6583266258239746
1729115027653510100,39.73151025390625,13.099806785583496,-0.5790630578994751,2.2671995162963867
1729115027691444700,39.76944482421875,8.297112464904785,0.9149555563926697,0.31854450702667236
1729115027729379600,39.807379638671875,10.3681001663208,0.735194742679596,1.4820544719696045
1729115027767314200,39.84531420898438,13.535599708557129,0.6083751320838928,0.05503492057323456
1729115027805248800,39.88324877929688,2.9703903198242188,0.4384847581386566,-0.2273181527853012
1729115027843183400,39.92118334960937,9.025128364562988,0.07447660714387894,-0.610468864440918
1729115027881118000,39.95911791992187,13.238590240478516,0.1295115202665329,-1.1108678579330444
1729115027919052500,39.997052490234374,3.1905298233032227,-0.7130611538887024,-2.6141586303710938
1729115027956987100,40.034987060546875,13.609777450561523,-0.28235307335853577,-0.8473583459854126
1729115027994921700,40.072921630859376,12.048759460449219,-1.0866405963897705,-5.226223945617676
1729115028032856300,40.11085620117188,10.901999473571777,-2.633301258087158,-2.583052158355713
1729115028070791000,40.148791015625,6.657131671905518,-0.4259224236011505,-6.5883378982543945
1729115028108725800,40.186725830078124,8.218149185180664,-4.067200183868408,-4.429114818572998
1729115028146660000,40.22466015625,10.461421012878418,0.5868397355079651,-5.092225551605225
1729115028184595000,40.26259497070313,9.862915992736816,-4.756931304931641,-3.4546377658843994
1729115028222529500,40.30052954101563,11.258829116821289,-3.9834516048431396,-2.5806591510772705
1729115028260464000,40.33846411132812,9.31466007232666,-1.3621143102645874,-1.2735798358917236
1729115028298398700,40.37639868164062,5.601597785949707,0.9987043738365173,-3.0786654949188232
1729115028336333300,40.414333251953124,12.264113426208496,-2.398505687713623,-0.8306085467338562
1729115028374268000,40.452267822265625,8.878867149353027,-2.662015199661255,-2.3126630783081055
1729115028412202500,40.49020239257813,9.999306678771973,-3.741776466369629,-1.623231053352356
1729115028450137000,40.52813720703125,10.114460945129395,-4.658526420593262,-1.6878372430801392
1729115028488071700,40.56607177734375,8.814261436462402,-4.004986763000488,-2.4370899200439453
1729115028526006300,40.60400634765625,9.659525871276855,-3.9523448944091797,-2.420340061187744
1729115028563940900,40.64194091796875,9.029914855957031,-3.8327035903930664,-2.640479803085327
1729115028601875500,40.67987548828125,9.374481201171875,-3.6269209384918213,-2.585444927215576
1729115028639810300,40.71781030273438,8.582157135009766,-2.8725836277008057,-2.9470601081848145
1729115028677745000,40.75574487304687,9.094520568847656,-2.3003997802734375,-2.506481647491455
1729115028715679500,40.79367944335937,9.8509521484375,-2.077867269515991,-2.606980323791504
1729115028753614000,40.831614013671874,8.426624298095703,-2.1568305492401123,-3.107379198074341
1729115028791548700,40.869548583984376,7.406683444976807,-3.717848300933838,-1.2329018115997314
1729115028829483300,40.90748315429688,7.34686279296875,2.2220349311828613,2.8704898357391357
1729115028867417900,40.94541796875,18.424135208129883,-1.2134602069854736,5.8010993003845215
1729115028905352400,40.9833525390625,7.35404109954834,0.2874378263950348,2.8226335048675537
1729115028943287000,41.021287109375,6.698108673095703,1.2906286716461182,0.5889334678649902
1729115028981221600,41.0592216796875,10.169496536254883,0.3041875660419464,-1.5248262882232666
1729115029019156200,41.09715625,10.363314628601074,0.41216370463371277,-1.5104693174362183
1729115029057091000,41.13509106445313,9.50638484954834,0.6394818425178528,-0.23210379481315613
1729115029095025400,41.173025390625,10.073782920837402,0.47198426723480225,0.21565313637256622
1729115029132960300,41.21096020507812,10.284351348876953,0.1175474151968956,-0.6176473498344421
1729115029170894800,41.248894775390625,10.030413627624512,-0.040378883481025696,-0.4692923426628113
1729115029208829400,41.286829345703126,9.922736167907715,-0.14327025413513184,-0.12442677468061447
1729115029246764000,41.32476391601563,9.798309326171875,-0.25363919138908386,-0.38763725757598877
1729115029284698600,41.36269873046875,9.874879837036133,-0.2727817893028259,-0.26081767678260803
1729115029322633200,41.40063330078125,9.862915992736816,-0.24406790733337402,-0.2560320198535919
1729115029360567800,41.43856787109375,9.922736167907715,-0.23449662327766418,-0.31106695532798767
1729115029398502400,41.47650244140625,9.901201248168945,-0.17198412120342255,-0.2679961323738098
1729115029436437000,41.51443701171875,9.910772323608398,-0.10737791657447815,-0.31824541091918945
1729115029474371600,41.55237158203125,9.889236450195312,-0.03320041298866272,-0.28235307335853577
1729115029512306400,41.59030639648437,9.889236450195312,-0.002093719784170389,-0.28235307335853577
1729115029550241000,41.628240966796874,9.894022941589355,-0.002093719784170389,-0.28953152894973755
1729115029588175600,41.666175537109375,9.898808479309082,-0.03559323772788048,-0.2847459018230438
1729115029626110200,41.704110107421876,9.896415710449219,-0.04755735024809837,-0.2871387302875519
1729115029664044800,41.742044921875,9.913165092468262,-0.06191428750753403,-0.28953152894973755
1729115029701979400,41.7799794921875,9.884450912475586,-0.05473581701517105,-0.2919243574142456
1729115029739914000,41.8179140625,9.903594017028809,-0.05473581701517105,-0.275174617767334
1729115029777848600,41.8558486328125,9.903594017028809,-0.042771704494953156,-0.2967100143432617
1729115029815783200,41.893783203125,9.894022941589355,-0.05712864175438881,-0.2991028428077698
1729115029853717800,41.9317177734375,9.882058143615723,-0.05712864175438881,-0.2967100143432617
1729115029891652400,41.96965234375,9.913165092468262,-0.05234299600124359,-0.2847459018230438
1729115029929587000,42.0075869140625,9.903594017028809,-0.05473581701517105,-0.2967100143432617
1729115029967521500,42.045521484375,9.901201248168945,-0.05234299600124359,-0.29431718587875366
1729115030005456400,42.083456298828125,9.901201248168945,-0.04995017126202583,-0.2967100143432617
1729115030043390700,42.121390625,9.894022941589355,-0.06191428750753403,-0.2991028428077698
1729115030081325600,42.15932568359375,9.908379554748535,-0.03798605874180794,-0.28235307335853577
1729115030119260200,42.19726025390625,9.901201248168945,-0.03798605874180794,-0.2727817893028259
1729115030157194800,42.23519482421875,9.901201248168945,-0.045164529234170914,-0.27756741642951965
1729115030195129300,42.27312939453125,9.901201248168945,-0.04755735024809837,-0.2847459018230438
1729115030233064000,42.31106396484375,9.901201248168945,-0.06191428750753403,-0.2871387302875519
1729115030270998500,42.34899853515625,9.898808479309082,-0.04995017126202583,-0.2919243574142456
1729115030308933000,42.38693310546875,9.894022941589355,-0.05473581701517105,-0.2919243574142456
1729115030346867700,42.42486767578125,9.898808479309082,-0.05234299600124359,-0.2967100143432617
1729115030384802300,42.46280224609375,9.896415710449219,-0.05234299600124359,-0.28953152894973755
1729115030422737000,42.50073681640625,9.87966537475586,-0.06191428750753403,-0.2991028428077698
1729115030460671700,42.538671630859376,9.901201248168945,-0.05712864175438881,-0.2919243574142456
1729115030498606300,42.5766064453125,9.905986785888672,-0.06669992953538895,-0.2871387302875519
1729115030536541000,42.614541015625,9.891630172729492,-0.04755735024809837,-0.27756741642951965
1729115030574475500,42.6524755859375,9.889236450195312,-0.04755735024809837,-0.2871387302875519
1729115030612410000,42.69041015625,9.87248706817627,-0.04755735024809837,-0.2847459018230438
1729115030650344700,42.7283447265625,9.913165092468262,-0.040378883481025696,-0.2871387302875519
1729115030688279300,42.766279296875,9.87966537475586,-0.05473581701517105,-0.2919243574142456
1729115030726214000,42.8042138671875,9.898808479309082,-0.04755735024809837,-0.2847459018230438
1729115030764148500,42.8421484375,9.903594017028809,-0.05234299600124359,-0.28953152894973755
1729115030802083000,42.8800830078125,9.894022941589355,-0.05952146276831627,-0.28953152894973755
1729115030840017700,42.918017578125,9.891630172729492,-0.05234299600124359,-0.2991028428077698
1729115030877952300,42.9559521484375,9.901201248168945,-0.05712864175438881,-0.29431718587875366
1729115030915886800,42.99388696289063,9.903594017028809,-0.042771704494953156,-0.2919243574142456
1729115030953821700,43.03182177734375,9.903594017028809,-0.04995017126202583,-0.28235307335853577
1729115030991756000,43.06975610351562,9.908379554748535,-0.03798605874180794,-0.28235307335853577
1729115031029691000,43.10769091796875,9.829416275024414,-0.021236300468444824,-0.8688937425613403
1729115031067625500,43.14562548828125,10.068997383117676,-0.08344969153404236,-0.10049854964017868
1729115031105560000,43.18356005859375,10.145567893981934,-0.1456630825996399,-0.3613162338733673
1729115031143494700,43.22149462890625,9.647562026977539,-0.07148557901382446,-0.4307080805301666
1729115031181429200,43.25942919921875,10.032806396484375,-0.09062815457582474,-0.12681959569454193
1729115031219363800,43.29736376953125,9.807881355285645,-0.08344969153404236,-0.36610186100006104
1729115031257298400,43.33529833984375,9.932307243347168,-0.07627122104167938,-0.2225325107574463
1729115031295233000,43.37323291015625,9.86530876159668,-0.042771704494953156,-0.30149564146995544
1729115031333167600,43.41116772460938,9.908379554748535,-0.03559323772788048,-0.2512463629245758
1729115031371102200,43.44910229492187,9.874879837036133,-0.03320041298866272,-0.2871387302875519
1729115031409036800,43.48703686523437,9.905986785888672,-0.05473581701517105,-0.2799602448940277
1729115031446971600,43.5249716796875,9.874879837036133,-0.05473581701517105,-0.27038896083831787
1729115031484906000,43.562906005859375,9.905986785888672,-0.05473581701517105,-0.2967100143432617
1729115031522840800,43.6008408203125,9.896415710449219,-0.04995017126202583,-0.27756741642951965
1729115031560775400,43.638775390625,9.898808479309082,-0.05473581701517105,-0.275174617767334
1729115031598710000,43.6767099609375,9.877272605895996,-0.042771704494953156,-0.27756741642951965
1729115031636644600,43.71464453125,9.915557861328125,-0.04995017126202583,-0.28235307335853577
1729115031674579200,43.7525791015625,9.882058143615723,-0.03798605874180794,-0.3397808074951172
1729115031712513800,43.790513671875,9.908379554748535,-0.02841476909816265,-0.24167509377002716
1729115031750448400,43.82844848632813,9.870094299316406,-0.042771704494953156,-0.24406790733337402
1729115031788383000,43.86638305664062,9.908379554748535,-0.07148557901382446,-0.3158525824546814
1729115031826317600,43.90431762695312,9.860523223876953,-0.042771704494953156,-0.27756741642951965
1729115031864252200,43.942252197265624,9.925128936767578,-0.06430710852146149,-0.2847459018230438
1729115031902186800,43.980186767578125,9.896415710449219,-0.07148557901382446,-0.2919243574142456
1729115031940121300,44.018121337890626,9.910772323608398,-0.06430710852146149,-0.28953152894973755
1729115031978056000,44.05605590820313,9.913165092468262,-0.05473581701517105,-0.30628129839897156
1729115032015990800,44.09399072265625,9.934700965881348,0.01944168470799923,-0.3517449200153351
1729115032053925400,44.13192529296875,9.937093734741211,0.3978067636489868,-0.2967100143432617
1729115032091860000,44.16985986328125,9.910772323608398,0.646660327911377,-0.2632105052471161
1729115032129794600,44.20779467773438,10.001699447631836,0.7112665176391602,-0.39481574296951294
1729115032167729200,44.24572924804688,9.908379554748535,1.202094316482544,-0.4043870270252228
1729115032205663700,44.28366381835937,10.039984703063965,1.4222339391708374,-0.42831525206565857
1729115032243598300,44.32159838867187,9.83420181274414,1.6450655460357666,-0.37088751792907715
1729115032281533000,44.359532958984374,10.26042366027832,1.7718851566314697,-0.1746760457754135
1729115032319467500,44.397467529296875,9.891630172729492,1.7096717357635498,-0.5027918815612793
1729115032357402000,44.43540209960938,9.496813774108887,2.0330018997192383,-0.4501497745513916
1729115032395336700,44.47333666992188,9.441479682922363,1.5804593563079834,-0.3684946894645691
1729115032433271300,44.51127124023437,9.566205978393555,1.348056435585022,-0.2392822653055191
1729115032471206000,44.54920581054687,9.578169822692871,0.5461617708206177,-0.4692923426628113
1729115032509140500,44.587140380859374,9.472586631774902,-0.6245267391204834,-0.7085745930671692
1729115032547075300,44.62507543945313,8.948558807373047,-0.5551348328590393,-1.1108678579330444
1729115032585010000,44.66301000976563,8.77358341217041,-1.3091731071472168,-2.123331069946289
1729115032622944500,44.70094458007812,9.987342834472656,-1.7114664316177368,-2.396411895751953
1729115032660879000,44.73887915039062,8.871688842773438,-1.2852448225021362,-2.1475582122802734
1729115032698813700,44.776813720703124,11.524432182312012,-1.3235300779342651,-2.1547367572784424
1729115032736748300,44.814748291015626,8.51755142211914,-1.555932879447937,-2.4873390197753906
1729115032774683000,44.85268286132813,10.82542896270752,-2.4921247959136963,-1.6471593379974365
1729115032812617500,44.89061743164063,9.508777618408203,-1.6372889280319214,-1.0247262716293335
1729115032850552000,44.92855200195312,9.95145034790039,-2.2669003009796143,-1.170688509941101
1729115032888486700,44.96648657226562,9.874879837036133,-2.6739792823791504,-0.8952147960662842
1729115032926421200,45.004421142578124,9.676275253295898,-1.898106575012207,0.13668999075889587
1729115032964355800,45.04235595703125,10.030413627624512,-1.7258232831954956,0.06939185410737991
1729115033002290400,45.08029052734375,9.525527954101562,-1.2349956035614014,0.32572299242019653
1729115033040225000,45.11822509765625,10.037591934204102,-1.1177473068237305,-0.30628129839897156
1729115033078160000,45.15615991210937,9.884450912475586,-0.8138588070869446,0.0023928226437419653
1729115033116094200,45.19409423828125,9.795916557312012,-0.6604190468788147,0.12233305722475052
1729115033154029000,45.232029052734376,9.970592498779297,-0.6604190468788147,0.05024927482008934
1729115033191963600,45.26996362304688,9.941879272460938,-0.5647061467170715,-0.2632105052471161
1729115033229898200,45.30789819335938,9.87966537475586,-0.41156548261642456,-0.4163511395454407
1729115033267832800,45.34583276367187,9.745667457580566,-0.4713860750198364,-0.18424734473228455
1729115033305767400,45.38376733398437,9.95145034790039,-0.8808578252792358,-0.39960137009620667
1729115033343702000,45.421701904296874,9.812666893005371,-0.8306085467338562,-0.038285162299871445
1729115033381636600,45.45963671875,10.116853713989258,-1.2469596862792969,-0.19142581522464752
1729115033419571200,45.4975712890625,9.44626522064209,-0.5431707501411438,0.7471588850021362
1729115033457505800,45.535505859375,9.649954795837402,-0.3900300860404968,0.2228316068649292
1729115033495440400,45.5734404296875,9.76241683959961,-0.519242525100708,0.48843491077423096
1729115033533375000,45.611375,9.987342834472656,-0.5144568681716919,0.6296114325523376
1729115033571309600,45.6493095703125,10.04985523223877,-0.1504487246274948,1.1204391717910767
1729115033609244200,45.687244140625,9.685847282409668,0.05054837837815285,1.3001999855041504
1729115033647178800,45.7251787109375,9.810274124145508,0.32572299242019653,2.0997018814086914
1729115033685113300,45.76311328125,9.980164527893066,0.44805604219436646,2.0853450298309326
1729115033723048200,45.80104809570312,9.970592498779297,0.2108674943447113,1.2355937957763672
1729115033760982800,45.838982666015625,9.73370361328125,0.08883354067802429,0.014356935396790504
1729115033798917400,45.87691748046875,9.771988868713379,0.04097708687186241,-0.4812564551830292
1729115033836852000,45.91485205078125,10.124032974243164,0.014656038954854012,0.1052841991186142
1729115033874786600,45.95278662109375,9.3457670211792,0.06729813665151596,0.33768710494041443
1729115033912721200,45.99072119140625,9.992128372192383,-0.1576271951198578,-0.2967100143432617
1729115033950655700,46.02865576171875,9.693025588989258,-0.03559323772788048,0.10049854964017868
1729115033988590300,46.06659033203125,10.008877754211426,-0.09780662506818771,-0.004785645287483931
1729115034026525000,46.10452490234375,9.831809043884277,-0.06191428750753403,-0.05024927482008934
1729115034064459500,46.14245947265625,9.929914474487305,-0.06191428750753403,-0.02871387079358101
1729115034102394000,46.18039404296875,9.836594581604004,-0.02841476909816265,-0.059820566326379776
1729115034140328700,46.21832861328125,9.920343399047852,0.00029910283046774566,-0.004785645287483931
1729115034178263300,46.25626318359375,9.884450912475586,-0.018843477591872215,-0.06699903309345245
1729115034216198000,46.294197998046876,9.913165092468262,-0.021236300468444824,-0.040677983313798904
1729115034254132500,46.33213256835938,9.884450912475586,-0.021236300468444824,-0.05503492057323456
1729115034292067000,46.37006713867188,9.903594017028809,-0.03080759197473526,-0.04785645380616188
1729115034330001700,46.40800170898437,9.903594017028809,-0.03559323772788048,-0.04785645380616188
1729115034367936300,46.44593627929687,9.901201248168945,-0.03798605874180794,-0.02632104977965355
1729115034405870800,46.483870849609374,9.877272605895996,-0.023629123345017433,-0.05024927482008934
1729115034443805700,46.5218056640625,9.915557861328125,-0.03798605874180794,-0.038285162299871445
1729115034481740300,46.559740234375,9.884450912475586,-0.03559323772788048,-0.05024927482008934
1729115034519675000,46.5976748046875,9.903594017028809,-0.023629123345017433,-0.04546362906694412
1729115034557609500,46.635609375,9.884450912475586,-0.018843477591872215,-0.035892341285943985
1729115034595544000,46.6735439453125,9.901201248168945,-0.03559323772788048,-0.040677983313798904
1729115034633478700,46.711478759765626,9.917950630187988,-0.03559323772788048,-0.040677983313798904
1729115034671413200,46.74941333007813,9.882058143615723,-0.026021946221590042,-0.05024927482008934
1729115034709347800,46.78734790039063,9.896415710449219,-0.023629123345017433,-0.04785645380616188
1729115034747282400,46.82528247070312,9.908379554748535,-0.026021946221590042,-0.03349951654672623
1729115034785217000,46.86321704101562,9.87966537475586,-0.026021946221590042,-0.040677983313798904
1729115034823151600,46.901151611328125,9.908379554748535,-0.03080759197473526,-0.040677983313798904
1729115034861086200,46.939086181640626,9.88684368133545,-0.016450656577944756,-0.05024927482008934
1729115034899020800,46.97702075195313,9.920343399047852,-0.026021946221590042,-0.04546362906694412
1729115034936955400,47.01495532226563,9.882058143615723,-0.03559323772788048,-0.05024927482008934
1729115034974890000,47.05288989257812,9.905986785888672,-0.026021946221590042,-0.062213387340307236
1729115035012824600,47.09082446289062,9.88684368133545,-0.016450656577944756,-0.0526420995593071
1729115035050759200,47.12875927734375,9.905986785888672,-0.021236300468444824,-0.05503492057323456
1729115035088693800,47.16669384765625,9.894022941589355,-0.018843477591872215,-0.04785645380616188
1729115035126628400,47.20462841796875,9.894022941589355,-0.016450656577944756,-0.064606212079525
1729115035164563200,47.24256323242187,9.905986785888672,-0.009272187948226929,-0.04785645380616188
1729115035202497800,47.280497802734374,9.874879837036133,-0.014057832770049572,-0.06699903309345245
1729115035240432400,47.318432373046875,9.894022941589355,-0.03798605874180794,-0.04546362906694412
1729115035278367000,47.356366943359376,9.891630172729492,-0.05712864175438881,-0.08614161610603333
1729115035316301600,47.39430151367188,9.913165092468262,-0.07387840002775192,-0.04546362906694412
1729115035354236200,47.43223608398438,9.884450912475586,-0.07627122104167938,-0.05503492057323456
