time,seconds_elapsed,z,y,x
1730998120110300000,0.1312998046875,9.870094299316406,-0.18873389065265656,-0.062213387340307236
1730998120148238000,0.169238037109375,9.88684368133545,-0.1983051747083664,-0.10289137065410614
1730998120186176000,0.207176025390625,9.894022941589355,-0.2030908167362213,-0.07657032459974289
1730998120224114000,0.245114013671875,9.891630172729492,-0.2030908167362213,-0.09571290761232376
1730998120262051600,0.283051513671875,9.884450912475586,-0.1983051747083664,-0.08374879509210587
1730998120299990000,0.320989990234375,9.882058143615723,-0.19112670421600342,-0.08614161610603333
1730998120337928200,0.35892822265625,9.88684368133545,-0.19351953268051147,-0.08374879509210587
1730998120375866000,0.3968662109375,9.891630172729492,-0.19351953268051147,-0.08374879509210587
1730998120413804300,0.43480419921875,9.896415710449219,-0.19591236114501953,-0.08853443711996078
1730998120451742200,0.4727421875,9.891630172729492,-0.19112670421600342,-0.08614161610603333
1730998120489680400,0.510680419921875,9.889236450195312,-0.1863410621881485,-0.07417750358581543
1730998120527618300,0.548618408203125,9.882058143615723,-0.18394823372364044,-0.08135596662759781
1730998120565556500,0.586556396484375,9.891630172729492,-0.19112670421600342,-0.0933200865983963
1730998120603494400,0.624494384765625,9.891630172729492,-0.19112670421600342,-0.08614161610603333
1730998120641432600,0.6624326171875,9.891630172729492,-0.2030908167362213,-0.08135596662759781
1730998120679370500,0.70037060546875,9.889236450195312,-0.18394823372364044,-0.08135596662759781
1730998120717308700,0.73830859375,9.88684368133545,-0.19591236114501953,-0.09092725813388824
1730998120755246600,0.77624658203125,9.901201248168945,-0.1983051747083664,-0.08374879509210587
1730998120793184800,0.814184814453125,9.908379554748535,-0.19351953268051147,-0.08374879509210587
1730998120831122700,0.852122802734375,9.896415710449219,-0.1983051747083664,-0.09092725813388824
1730998120869060900,0.890060791015625,9.889236450195312,-0.19112670421600342,-0.09092725813388824
1730998120906998800,0.927998779296875,9.889236450195312,-0.19591236114501953,-0.08853443711996078
1730998120944937000,0.96593701171875,9.891630172729492,-0.18394823372364044,-0.0933200865983963
1730998120982875000,1.003875,9.884450912475586,-0.19112670421600342,-0.09571290761232376
1730998121020813000,1.04181298828125,9.882058143615723,-0.19591236114501953,-0.07896314561367035
1730998121058751000,1.0797509765625,9.905986785888672,-0.18394823372364044,-0.08614161610603333
1730998121096689200,1.117689208984375,9.884450912475586,-0.19591236114501953,-0.09092725813388824
1730998121134627000,1.155626953125,9.905986785888672,-0.20069800317287445,-0.08614161610603333
1730998121172565200,1.193565185546875,9.884450912475586,-0.18873389065265656,-0.10289137065410614
1730998121210503200,1.231503173828125,9.894022941589355,-0.19351953268051147,-0.08614161610603333
1730998121248441300,1.26944140625,9.903594017028809,-0.19591236114501953,-0.08614161610603333
1730998121286379300,1.307379150390625,9.905986785888672,-0.18394823372364044,-0.07178468257188797
1730998121324317400,1.3453173828125,9.87966537475586,-0.18155542016029358,-0.08853443711996078
1730998121362255600,1.383255615234375,9.903594017028809,-0.19591236114501953,-0.08853443711996078
1730998121400193500,1.421193603515625,9.88684368133545,-0.20069800317287445,-0.09571290761232376
1730998121438131700,1.459131591796875,9.901201248168945,-0.1983051747083664,-0.0933200865983963
1730998121476069600,1.497069580078125,9.87966537475586,-0.19591236114501953,-0.08614161610603333
1730998121514007800,1.5350078125,9.891630172729492,-0.19351953268051147,-0.08614161610603333
1730998121551945700,1.57294580078125,9.901201248168945,-0.18873389065265656,-0.08135596662759781
1730998121589884000,1.6108837890625,9.884450912475586,-0.19351953268051147,-0.09092725813388824
1730998121627821800,1.64882177734375,9.884450912475586,-0.20069800317287445,-0.08614161610603333
1730998121665760000,1.686760009765625,9.894022941589355,-0.19351953268051147,-0.10049854964017868
1730998121703698000,1.724697998046875,9.910772323608398,-0.20069800317287445,-0.08614161610603333
1730998121741636000,1.762635986328125,9.913165092468262,-0.18873389065265656,-0.07657032459974289
1730998121779574000,1.800573974609375,9.901201248168945,-0.19112670421600342,-0.09092725813388824
1730998121817512200,1.83851220703125,9.882058143615723,-0.18873389065265656,-0.09092725813388824
1730998121855450400,1.876450439453125,9.896415710449219,-0.18873389065265656,-0.06699903309345245
1730998121893388300,1.91438818359375,9.884450912475586,-0.19351953268051147,-0.10049854964017868
1730998121931326500,1.952326416015625,9.913165092468262,-0.18873389065265656,-0.08135596662759781
1730998121969264400,1.990264404296875,9.891630172729492,-0.1863410621881485,-0.0933200865983963
1730998122007202600,2.02820263671875,9.905986785888672,-0.18873389065265656,-0.07896314561367035
1730998122045140500,2.066140380859375,9.88684368133545,-0.20069800317287445,-0.09092725813388824
1730998122083078700,2.10407861328125,9.891630172729492,-0.19112670421600342,-0.08853443711996078
1730998122121016600,2.1420166015625,9.898808479309082,-0.1983051747083664,-0.09571290761232376
1730998122158954800,2.179954833984375,9.896415710449219,-0.18394823372364044,-0.09092725813388824
1730998122196893000,2.217892822265625,9.901201248168945,-0.19591236114501953,-0.08614161610603333
1730998122234830800,2.255830810546875,9.917950630187988,-0.19351953268051147,-0.09092725813388824
1730998122272769000,2.29376904296875,9.889236450195312,-0.19351953268051147,-0.08374879509210587
1730998122310707000,2.33170703125,9.908379554748535,-0.19351953268051147,-0.07896314561367035
1730998122348645000,2.36964501953125,9.889236450195312,-0.19591236114501953,-0.08374879509210587
1730998122386583000,2.4075830078125,9.903594017028809,-0.1863410621881485,-0.09571290761232376
1730998122424521200,2.445521240234375,9.901201248168945,-0.18873389065265656,-0.08614161610603333
1730998122462459100,2.483459228515625,9.896415710449219,-0.18394823372364044,-0.09092725813388824
1730998122500397300,2.521397216796875,9.889236450195312,-0.1863410621881485,-0.07896314561367035
1730998122538335200,2.559335205078125,9.901201248168945,-0.19591236114501953,-0.08853443711996078
1730998122576273400,2.5972734375,9.903594017028809,-0.1983051747083664,-0.08853443711996078
1730998122614211600,2.635211669921875,9.898808479309082,-0.19591236114501953,-0.0933200865983963
1730998122652149500,2.6731494140625,9.894022941589355,-0.1863410621881485,-0.07657032459974289
1730998122690087700,2.711087646484375,9.898808479309082,-0.1863410621881485,-0.08374879509210587
1730998122728025600,2.749025634765625,9.894022941589355,-0.1983051747083664,-0.07896314561367035
1730998122765963800,2.7869638671875,9.889236450195312,-0.19591236114501953,-0.08614161610603333
1730998122803901700,2.824901611328125,9.901201248168945,-0.19351953268051147,-0.08135596662759781
1730998122841839900,2.86283984375,9.896415710449219,-0.1983051747083664,-0.08853443711996078
1730998122879777800,2.90077783203125,9.901201248168945,-0.19351953268051147,-0.08374879509210587
1730998122917716000,2.938716064453125,9.894022941589355,-0.18394823372364044,-0.09092725813388824
1730998122955654000,2.97665380859375,9.894022941589355,-0.19112670421600342,-0.08374879509210587
1730998122993592000,3.014592041015625,9.905986785888672,-0.20548364520072937,-0.0933200865983963
1730998123031530200,3.0525302734375,9.901201248168945,-0.20069800317287445,-0.0933200865983963
1730998123069468200,3.09046826171875,9.88684368133545,-0.19591236114501953,-0.08374879509210587
1730998123107406300,3.12840625,9.905986785888672,-0.19591236114501953,-0.08853443711996078
1730998123145344300,3.16634423828125,9.905986785888672,-0.1863410621881485,-0.08853443711996078
1730998123183282400,3.204282470703125,9.908379554748535,-0.19351953268051147,-0.07896314561367035
1730998123221220400,3.242220458984375,9.889236450195312,-0.1983051747083664,-0.0933200865983963
1730998123259158500,3.280158447265625,9.896415710449219,-0.19351953268051147,-0.07896314561367035
1730998123297096400,3.318096435546875,9.898808479309082,-0.19112670421600342,-0.08135596662759781
1730998123335034600,3.35603466796875,9.88684368133545,-0.18873389065265656,-0.08853443711996078
1730998123372972500,3.39397265625,9.915557861328125,-0.19591236114501953,-0.07178468257188797
1730998123410910700,3.43191064453125,9.889236450195312,-0.19591236114501953,-0.08853443711996078
1730998123448848600,3.4698486328125,9.903594017028809,-0.19112670421600342,-0.07178468257188797
1730998123486786800,3.507786865234375,9.910772323608398,-0.19112670421600342,-0.07178468257188797
1730998123524725000,3.54572509765625,9.891630172729492,-0.19351953268051147,-0.08374879509210587
1730998123562663000,3.583662841796875,9.894022941589355,-0.18394823372364044,-0.07896314561367035
1730998123600601000,3.62160107421875,9.894022941589355,-0.19591236114501953,-0.08853443711996078
1730998123638539000,3.6595390625,9.896415710449219,-0.18873389065265656,-0.08853443711996078
1730998123676477000,3.697476806640625,9.905986785888672,-0.1983051747083664,-0.08853443711996078
1730998123714415000,3.7354150390625,9.898808479309082,-0.1983051747083664,-0.08614161610603333
1730998123752353000,3.77335302734375,9.903594017028809,-0.19591236114501953,-0.08374879509210587
1730998123790291200,3.811291259765625,9.891630172729492,-0.19112670421600342,-0.08614161610603333
1730998123828229400,3.8492294921875,9.88684368133545,-0.19351953268051147,-0.08853443711996078
1730998123866167300,3.887167236328125,9.905986785888672,-0.10737791657447815,-0.12681959569454193
1730998123904105500,3.92510546875,9.903594017028809,0.1989033818244934,-0.07178468257188797
1730998123942043400,3.96304345703125,9.925128936767578,0.5078766345977783,-0.016749758273363113
1730998123979981600,4.000981689453125,9.894022941589355,0.9388837814331055,-0.1986042857170105
1730998124017919500,4.03891943359375,10.011270523071289,0.9053842425346375,-0.04546362906694412
1730998124055857700,4.076857666015625,9.894022941589355,0.8309076428413391,-0.16510476171970367
1730998124093795600,4.114795654296875,9.96580696105957,0.8763712644577026,-0.02392822690308094
1730998124131733800,4.152733642578125,9.621240615844727,1.0752747058868408,-0.06939185410737991
1730998124169671700,4.190671630859375,10.329814910888672,1.1829516887664795,-0.004785645287483931
1730998124207609900,4.22860986328125,10.102497100830078,0.8309076428413391,-0.40677985548973083
1730998124245547800,4.2665478515625,10.133604049682617,0.5341976284980774,0.42382872104644775
1730998124283486000,4.30448583984375,9.41755199432373,0.33050861954689026,-0.1339980661869049
1730998124321424000,4.342423828125,9.853344917297363,0.21804596483707428,-0.27038896083831787
1730998124359362000,4.380362060546875,10.083354949951172,0.08165507018566132,-0.07657032459974289
1730998124397300000,4.418300048828125,9.822237968444824,-0.20069800317287445,-0.3565305769443512
1730998124435238100,4.456238037109375,9.297910690307617,0.0649053156375885,-0.2727817893028259
1730998124473176000,4.494176025390625,9.458230018615723,-0.03559323772788048,-0.19381862878799438
1730998124511114200,4.5321142578125,9.903594017028809,-0.14327025413513184,-0.2632105052471161
1730998124549052200,4.57005224609375,9.934700965881348,-0.3756731450557709,-0.07896314561367035
1730998124586990300,4.607990234375,10.653145790100098,-0.49292147159576416,-0.11485548317432404
1730998124624928300,4.64592822265625,9.568598747253418,-0.29431718587875366,-0.39481574296951294
1730998124662866400,4.683866455078125,11.36650562286377,-0.698704183101654,-0.47168517112731934
1730998124700804400,4.721804443359375,10.729716300964355,0.012263216078281403,-0.5075774788856506
1730998124738742500,4.759742431640625,9.894022941589355,-0.05234299600124359,0.04785645380616188
1730998124776680400,4.797680419921875,9.738489151000977,0.09361918270587921,-0.5338985323905945
1730998124814618600,4.83561865234375,9.999306678771973,-0.15523436665534973,-0.10049854964017868
1730998124852556500,4.873556640625,9.86530876159668,0.04576273262500763,-0.08614161610603333
1730998124890494700,4.91149462890625,9.927521705627441,-0.12412767112255096,-0.13160525262355804
1730998124928432600,4.9494326171875,9.798309326171875,0.17736798524856567,-0.4163511395454407
1730998124966370800,4.987370849609375,9.891630172729492,0.3475574851036072,-0.2679961323738098
1730998125004308700,5.025308837890625,9.800702095031738,0.5341976284980774,0.23718854784965515
1730998125042247000,5.063246826171875,9.968199729919434,0.373878538608551,-0.02871387079358101
1730998125080184800,5.101184814453125,9.4390869140625,1.6546368598937988,-0.9143573641777039
1730998125118123000,5.139123046875,9.992128372192383,1.0441679954528809,-0.5315057039260864
1730998125156061000,5.17706103515625,10.234102249145508,0.8715856671333313,-0.14835500717163086
1730998125193999000,5.2149990234375,10.432706832885742,0.6227321028709412,0.4142574071884155
1730998125231937000,5.25293701171875,9.874879837036133,0.5102694034576416,-0.13160525262355804
1730998125269875200,5.290875244140625,9.752845764160156,0.012263216078281403,-0.646361231803894
1730998125307813000,5.328813232421875,9.71695327758789,0.1701895147562027,-0.3613162338733673
1730998125345751300,5.366751220703125,10.744072914123535,-0.4737788736820221,-0.009571290574967861
1730998125383689200,5.404689208984375,12.506087303161621,-1.9606190919876099,-0.16031911969184875
1730998125421627400,5.44262744140625,12.300304412841797,-0.43549370765686035,-0.27038896083831787
1730998125459565300,5.4805654296875,9.697811126708984,0.14386846125125885,0.13668999075889587
1730998125497503500,5.51850341796875,9.41037368774414,-0.27756741642951965,-0.13878370821475983
1730998125535441400,5.55644140625,8.835796356201172,0.1414756327867508,0.02392822690308094
1730998125573379600,5.594379638671875,9.22851848602295,-0.42831525206565857,-0.09092725813388824
1730998125611317500,5.6323173828125,9.963414192199707,-0.31106695532798767,-0.12203395366668701
1730998125649255700,5.670255615234375,10.717751502990723,-0.5575276613235474,-0.07896314561367035
1730998125687193600,5.708193603515625,10.0040922164917,-0.45942193269729614,-0.33738797903060913
1730998125725131800,5.7461318359375,9.968199729919434,0.1175474151968956,-0.16510476171970367
1730998125763069700,5.784069580078125,10.39202880859375,-0.12412767112255096,0.42382872104644775
1730998125801007900,5.8220078125,9.685847282409668,-0.5479564070701599,-0.08135596662759781
1730998125838945800,5.85994580078125,9.64038372039795,-0.6460621356964111,-0.34695929288864136
1730998125876884000,5.897884033203125,9.326624870300293,-0.42831525206565857,-0.36610186100006104
1730998125914822000,5.93582177734375,8.56301498413086,1.0968101024627686,0.2922234535217285
1730998125952760000,5.973760009765625,9.922736167907715,0.3978067636489868,-0.12681959569454193
1730998125990698000,6.011697998046875,10.894820213317871,0.39541393518447876,0.15583257377147675
1730998126028636200,6.04963623046875,8.88125991821289,0.802193820476532,-0.02871387079358101
1730998126066574000,6.087573974609375,9.422337532043457,0.8045865893363953,-0.1052841991186142
1730998126104512300,6.12551220703125,9.020342826843262,0.02183450572192669,-0.6224330067634583
1730998126142450200,6.1634501953125,10.04985523223877,-0.4546363055706024,-0.27756741642951965
1730998126180388400,6.201388427734375,9.934700965881348,0.4504488706588745,0.02632104977965355
1730998126218326300,6.239326171875,8.66351318359375,-0.30149564146995544,-0.1052841991186142
1730998126256264200,6.27726416015625,10.686644554138184,-0.8976075649261475,-0.32303106784820557
1730998126294202400,6.315202392578125,10.69382381439209,-0.7513462901115417,0.09571290761232376
1730998126332140300,6.353140380859375,10.011270523071289,-0.727418065071106,-0.04307080805301666
1730998126370078500,6.391078369140625,9.59492015838623,-0.2847459018230438,-0.15553347766399384
1730998126408016400,6.429016357421875,9.489635467529297,0.25393831729888916,-0.11724831163883209
1730998126445954600,6.46695458984375,8.665905952453613,0.6681957244873047,-0.1052841991186142
1730998126483892200,6.504892333984375,12.192328453063965,-0.2799602448940277,-0.0933200865983963
1730998126521830700,6.54283056640625,11.672786712646484,-0.2560320198535919,-0.1866401731967926
1730998126559768600,6.5807685546875,10.559526443481445,-0.2871387302875519,-0.064606212079525
1730998126597706800,6.618706787109375,9.092127799987793,0.06011966988444328,-0.4019941985607147
1730998126635644700,6.656644775390625,9.403194427490234,0.13668999075889587,-0.4331009089946747
1730998126673582800,6.694582763671875,9.819845199584961,0.4743770956993103,-0.19381862878799438
1730998126711520800,6.732520751953125,10.124032974243164,1.4054841995239258,0.39990049600601196
1730998126749459000,6.770458984375,10.1814603805542,0.13190434873104095,-0.1052841991186142
1730998126787396900,6.80839697265625,10.265209197998047,0.005084747914224863,0.25633111596107483
1730998126825335000,6.8463349609375,9.87966537475586,0.07208377867937088,0.26590242981910706
1730998126863273000,6.88427294921875,9.587740898132324,0.6346961855888367,0.6200401782989502
1730998126901211100,6.922211181640625,10.7799654006958,0.44327038526535034,-0.08135596662759781
1730998126939149000,6.960149169921875,11.232507705688477,0.07926224917173386,0.368793785572052
1730998126977087000,6.9980869140625,12.98495101928711,-0.045164529234170914,1.048654556274414
1730998127015025200,7.036025146484375,10.195816993713379,0.11036894470453262,0.36640095710754395
1730998127052963000,7.073963134765625,10.205389022827148,-0.16719847917556763,0.07178468257188797
1730998127090901200,7.1119013671875,10.030413627624512,0.21804596483707428,0.5602195858955383
1730998127128839200,7.149839111328125,9.64038372039795,0.24436701834201813,0.13190434873104095
1730998127166777300,7.18777734375,9.743274688720703,-0.04755735024809837,0.3807578980922699
1730998127204715300,7.22571533203125,6.997211456298828,0.9388837814331055,-0.4019941985607147
1730998127242653400,7.2636533203125,10.195816993713379,-0.7130611538887024,0.16061821579933167
1730998127280591400,7.30159130859375,10.482955932617188,0.014656038954854012,0.32572299242019653
1730998127318529300,7.339529296875,10.710573196411133,0.20129621028900146,0.44297128915786743
1730998127356467500,7.377467529296875,11.344970703125,0.5988038778305054,0.7615157961845398
1730998127394405400,7.4154052734375,8.457730293273926,1.312164068222046,0.6176473498344421
1730998127432343600,7.453343505859375,8.931808471679688,0.6993024349212646,0.5434698462486267
1730998127470281500,7.491281494140625,10.40638542175293,0.4384847581386566,1.201795220375061
1730998127508219600,7.5292197265625,9.511171340942383,1.0202397108078003,0.43579283356666565
1730998127546157600,7.567157470703125,10.8397855758667,0.529412031173706,0.4788636267185211
1730998127584095700,7.605095703125,12.22104263305664,-0.3852444589138031,0.8548358678817749
1730998127622033700,7.64303369140625,10.071390151977539,0.40737804770469666,-0.13160525262355804
1730998127659971800,7.680971923828125,8.80469036102295,0.24436701834201813,0.6152545213699341
1730998127697909800,7.71890966796875,9.250054359436035,-0.07148557901382446,-0.30628129839897156
1730998127735848000,7.756847900390625,10.490134239196777,-0.7585247755050659,-0.33499518036842346
1730998127773785900,7.794785888671875,9.508777618408203,0.1989033818244934,0.02153540402650833
1730998127811723800,7.832723876953125,8.613264083862305,-0.3684946894645691,0.20608185231685638
1730998127849662000,7.870661865234375,10.897212982177734,0.7136593461036682,0.5482555031776428
1730998127887599900,7.908599853515625,9.195018768310547,0.1941177397966385,-0.07417750358581543
1730998127925538000,7.9465380859375,10.243673324584961,0.6394818425178528,-0.3517449200153351
1730998127963476000,7.98447607421875,10.234102249145508,0.13668999075889587,-0.12442677468061447
1730998128001414100,8.0224140625,7.121638298034668,0.31375887989997864,0.13190434873104095
1730998128039352000,8.06035205078125,10.162318229675293,-0.0690927505493164,0.49322056770324707
1730998128077290200,8.098290283203125,9.728918075561523,0.13668999075889587,0.12233305722475052
1730998128115228200,8.136228271484375,10.212567329406738,0.2587239444255829,-0.17706887423992157
1730998128153166300,8.174166259765625,10.39920711517334,0.005084747914224863,-0.11964113265275955
1730998128191104300,8.212104248046876,8.476873397827148,1.1303095817565918,-0.23688943684101105
1730998128229042200,8.250042236328126,7.239185810089111,1.0824531316757202,-0.4573282301425934
1730998128266980400,8.28798046875,9.003593444824219,0.9173483848571777,1.1443674564361572
1730998128304918300,8.325918212890626,9.290732383728027,0.17736798524856567,-0.6415755748748779
1730998128342856400,8.3638564453125,10.095318794250488,0.3690928816795349,-0.2919243574142456
1730998128380794400,8.40179443359375,8.802297592163086,1.0992028713226318,-0.23688943684101105
1730998128418732500,8.439732666015624,8.57019329071045,-0.011665010824799538,1.0630114078521729
1730998128456670500,8.47767041015625,10.444670677185059,-0.1576271951198578,0.3975076675415039
1730998128494608600,8.515608642578124,10.470992088317871,-0.8641080856323242,-0.38285163044929504
1730998128532546600,8.553546630859374,10.770393371582031,-1.2852448225021362,0.4549354016780853
1730998128570484500,8.591484375,10.68425178527832,-0.25363919138908386,0.35443684458732605
1730998128608422700,8.629422607421875,11.124531745910645,0.22043879330158234,0.17497515678405762
1730998128646360600,8.667360595703125,10.573883056640625,0.04815555736422539,0.10289137065410614
1730998128684298800,8.705298828125,10.557133674621582,0.13908281922340393,0.12711870670318604
1730998128722236700,8.743236572265625,10.923534393310547,0.08165507018566132,-0.5003990530967712
1730998128760174600,8.781174560546875,9.85813045501709,-1.2134602069854736,0.1534397453069687
1730998128798112800,8.81911279296875,8.199007034301758,-0.727418065071106,0.5027918815612793
1730998128836050700,8.85705078125,10.152746200561523,-0.5575276613235474,-0.5362913608551025
1730998128873988900,8.89498876953125,8.749654769897461,0.06969095766544342,-0.09571290761232376
1730998128911926800,8.9329267578125,7.1958160400390625,-1.5726827383041382,0.134297177195549
1730998128949865000,8.970864990234375,8.902795791625977,-0.2799602448940277,0.1295115202665329
1730998128987803000,9.008802978515625,8.878867149353027,-0.42831525206565857,0.2874378263950348
1730998129025741000,9.046740966796875,9.309874534606934,-0.2847459018230438,-0.3613162338733673
1730998129063679000,9.084678955078125,10.470992088317871,-0.1576271951198578,0.031106693670153618
1730998129101617000,9.122616943359375,8.94377326965332,0.890728235244751,-0.29431718587875366
1730998129139555000,9.16055517578125,10.906785011291504,-0.5479564070701599,-0.2847459018230438
1730998129177493000,9.198492919921875,9.836594581604004,-0.6915257573127747,-0.4956133961677551
1730998129215431200,9.23643115234375,10.164710998535156,-1.3621143102645874,-0.8042874932289124
1730998129253369000,9.274369140625,9.530313491821289,-1.158425211906433,-0.7037889361381531
1730998129291307300,9.312307373046876,10.006484985351562,-1.6013965606689453,0.10049854964017868
1730998129329245200,9.3502451171875,12.13490104675293,-0.2847459018230438,0.5697908997535706
1730998129367183400,9.388183349609376,8.23968505859375,0.4983053207397461,0.1052841991186142
1730998129405121300,9.426121337890624,10.619646072387695,0.057726845145225525,0.30658039450645447
1730998129443059200,9.46405908203125,10.430314064025879,-0.08823533356189728,-0.5410770177841187
1730998129480997400,9.501997314453124,10.301101684570312,-0.3158525824546814,-0.34695929288864136
1730998129518935300,9.539935302734374,10.25324535369873,-1.3621143102645874,0.1414756327867508
1730998129556873500,9.57787353515625,14.330315589904785,-0.5000999569892883,-0.701396107673645
1730998129594811400,9.615811279296874,10.739287376403809,-0.9837492108345032,-0.885643482208252
1730998129632749600,9.65374951171875,10.799107551574707,-0.4498506486415863,-0.8114659786224365
1730998129670687500,9.6916875,10.195816993713379,-0.3613162338733673,-0.9574281573295593
1730998129708625400,9.72962548828125,10.631609916687012,-0.1504487246274948,-0.397208571434021
1730998129746563600,9.7675634765625,10.734501838684082,0.036191441118717194,-0.5554339289665222
1730998129784501500,9.80550146484375,6.942176818847656,1.9441684484481812,-0.6535396575927734
1730998129822439700,9.843439697265625,10.035199165344238,-0.3613162338733673,-0.5817549824714661
1730998129860377600,9.881377685546875,10.70100212097168,0.2754737138748169,-0.7444669604301453
1730998129898315800,9.919315673828125,9.798309326171875,0.4863412082195282,-0.8808578252792358
1730998129936253700,9.957253662109375,9.99691390991211,-0.15284155309200287,-0.9095717072486877
1730998129974191600,9.995191650390625,8.582157135009766,-0.4570291340351105,-0.4043870270252228
1730998130012129800,10.0331298828125,11.081460952758789,-0.31106695532798767,-0.5003990530967712
1730998130050067700,10.071067626953125,11.598609924316406,0.17497515678405762,-0.5841478109359741
1730998130088006000,10.109005859375,11.69432258605957,0.036191441118717194,-0.12442677468061447
1730998130125943800,10.14694384765625,10.16710376739502,0.40259242057800293,-0.23688943684101105
1730998130163881700,10.1848818359375,9.376873970031738,0.31375887989997864,-0.9071788787841797
1730998130201816600,10.222816650390625,9.049057006835938,0.21804596483707428,-0.8928219676017761
1730998130239754800,10.260754638671875,10.26760196685791,0.1821536272764206,-1.0100702047348022
1730998130277692700,10.298692626953125,9.803094863891602,-1.5056836605072021,-0.8114659786224365
1730998130315630800,10.336630859375,8.426624298095703,0.41216370463371277,-1.072582721710205
1730998130353568800,10.37456884765625,7.645965576171875,0.07208377867937088,-0.91914302110672
1730998130391507000,10.4125068359375,8.256434440612793,-1.6061822175979614,-0.18903298676013947
1730998130429444900,10.45044482421875,11.165508270263672,-0.002093719784170389,-1.0199406147003174
1730998130467382800,10.4883828125,8.23968505859375,-0.5096712112426758,-0.8928219676017761
1730998130505321000,10.526321044921875,9.496813774108887,0.30658039450645447,-0.9550353288650513
1730998130543259000,10.5642587890625,10.729716300964355,-0.7130611538887024,-0.4860421121120453
1730998130581197000,10.602197021484375,9.070592880249023,0.3595215976238251,-0.2991028428077698
1730998130619135000,10.640135009765626,10.339386940002441,-0.03798605874180794,0.6487540602684021
1730998130657073000,10.678072998046876,11.37368392944336,1.108774185180664,0.7902296781539917
1730998130695011000,10.716010986328126,10.425528526306152,0.9723833203315735,0.45254257321357727
1730998130732949000,10.753948974609376,9.75523853302002,0.4336991012096405,-0.6990033388137817
1730998130770887200,10.79188720703125,7.921439170837402,-0.33499518036842346,-0.4668995141983032
1730998130808825000,10.8298251953125,8.09850788116455,0.4624129831790924,0.04785645380616188
1730998130846763000,10.867762939453126,9.020342826843262,0.16301104426383972,-0.14117653667926788
1730998130884701200,10.905701171875,11.60818099975586,-0.5407779216766357,0.07178468257188797
1730998130922639000,10.94363916015625,8.78076171875,-1.31156587600708,0.11006984114646912
1730998130960577300,10.981577392578124,10.997712135314941,0.2802593410015106,0.35443684458732605
1730998130998515200,11.01951513671875,10.595418930053711,0.17258232831954956,0.7256234884262085
1730998131036453000,11.057453125,9.946664810180664,-1.0052846670150757,-0.04307080805301666
1730998131074391300,11.095391357421875,12.407981872558594,-0.5168496966362,0.5267201066017151
1730998131112329200,11.1333291015625,9.649954795837402,0.4001995921134949,0.1582254022359848
1730998131150267400,11.171267333984375,8.8740816116333,-0.03320041298866272,0.6248258352279663
1730998131188205300,11.209205322265625,11.258829116821289,-1.2756736278533936,0.5434698462486267
1730998131226143500,11.2471435546875,10.748858451843262,-0.16002000868320465,1.0893324613571167
1730998131264081400,11.285081298828125,11.668001174926758,-0.7393822073936462,0.44775694608688354
1730998131302019300,11.323019287109375,10.293923377990723,-0.31824541091918945,-0.014356935396790504
1730998131339957500,11.36095751953125,9.360123634338379,-0.31106695532798767,1.9130617380142212
1730998131377895400,11.3988955078125,8.41705322265625,0.11515458673238754,0.5769693851470947
1730998131415833600,11.43683349609375,8.866903305053711,0.4624129831790924,0.385543555021286
1730998131453771500,11.474771484375,10.514062881469727,-0.9837492108345032,0.38793638348579407
1730998131491709400,11.51270947265625,9.82702350616455,-0.7561319470405579,0.768694281578064
1730998131529647600,11.550647705078125,8.359326362609863,-0.7154539823532104,-0.2871387302875519
1730998131567585500,11.58858544921875,7.964509963989258,0.45523449778556824,0.1295115202665329
1730998131605523700,11.626523681640625,9.230911254882812,-0.02841476909816265,-0.14356936514377594
1730998131643461600,11.664461669921875,10.032806396484375,-0.17916259169578552,-0.07178468257188797
1730998131681399600,11.702399658203126,8.467302322387695,-0.7824530005455017,0.8452646136283875
1730998131719337700,11.740337646484376,10.047462463378906,0.24436701834201813,0.5458626747131348
1730998131757275600,11.778275634765626,9.752845764160156,-0.12652049958705902,-0.31106695532798767
1730998131795213800,11.8162138671875,9.99691390991211,-0.05473581701517105,-0.38285163044929504
1730998131833151700,11.85415185546875,9.736096382141113,-0.1576271951198578,0.23958136141300201
1730998131871089700,11.892089599609376,9.460622787475586,-0.20787647366523743,0.5841478109359741
1730998131909027800,11.93002783203125,9.443872451782227,-0.7728816866874695,0.4046861231327057
1730998131946965800,11.9679658203125,9.5231351852417,-0.24167509377002716,-0.13878370821475983
1730998131984903700,12.005903564453124,7.612466335296631,0.20608185231685638,0.3209373354911804
1730998132022841900,12.043841796875,9.235696792602539,0.2682952284812927,0.12233305722475052
1730998132060779800,12.08177978515625,9.877272605895996,0.3041875660419464,-0.27038896083831787
1730998132098718000,12.119718017578125,9.929914474487305,0.4384847581386566,-0.31824541091918945
1730998132136656000,12.15765576171875,8.356932640075684,0.7304090857505798,-0.14835500717163086
1730998132174593800,12.19559375,8.685049057006836,1.0752747058868408,0.1462612897157669
1730998132212532000,12.233531982421875,8.579764366149902,0.48394837975502014,-0.2392822653055191
1730998132250470000,12.271469970703125,8.833403587341309,0.20608185231685638,-0.4549354016780853
1730998132288408000,12.309407958984375,7.1264238357543945,0.13190434873104095,0.17976079881191254
1730998132326346000,12.347345947265625,8.838189125061035,0.48394837975502014,-0.44027936458587646
1730998132364284200,12.3852841796875,10.425528526306152,-0.7202396392822266,0.2515454888343811
1730998132402222000,12.42322216796875,10.238887786865234,0.8165507316589355,0.11276176571846008
1730998132440160000,12.461159912109375,9.984950065612793,-1.0555338859558105,-0.646361231803894
1730998132478098200,12.49909814453125,10.449456214904785,-0.18155542016029358,0.5123631358146667
1730998132516036000,12.5370361328125,10.753643989562988,-0.7250252366065979,-0.20578274130821228
1730998132553974000,12.57497412109375,10.744072914123535,-1.7976080179214478,-0.20099709928035736
1730998132591912200,12.612912109375,11.071889877319336,-0.4450650215148926,-0.08853443711996078
1730998132629850000,12.65085009765625,9.254839897155762,0.18454644083976746,0.18454644083976746
1730998132667788300,12.688788330078125,8.01236629486084,-0.16719847917556763,-0.5195416212081909
1730998132705726200,12.726726318359376,10.011270523071289,-1.1033903360366821,0.6801598072052002
1730998132743664000,12.7646640625,9.17587661743164,-0.2030908167362213,-0.2153540402650833
1730998132781602300,12.802602294921876,9.743274688720703,-0.0930209830403328,-0.9717850685119629
1730998132819540200,12.840540283203126,9.62363338470459,0.6945167779922485,0.02871387079358101
1730998132857478400,12.878478515625,9.642776489257812,0.37866419553756714,-0.7420741319656372
1730998132895416300,12.916416259765626,9.025128364562988,-0.8976075649261475,-0.17946170270442963
1730998132933354200,12.954354248046876,10.78714370727539,-0.8425726890563965,0.6945167779922485
1730998132971292400,12.99229248046875,11.919547080993652,-2.1185452938079834,0.15583257377147675
1730998133009230300,13.030230224609374,9.669096946716309,-0.21744775772094727,-0.34695929288864136
1730998133047168500,13.06816845703125,9.767203330993652,-0.6795616149902344,-0.610468864440918
1730998133085106400,13.1061064453125,9.915557861328125,-1.4267204999923706,-1.2233306169509888
1730998133123044400,13.14404443359375,9.649954795837402,-0.1217348501086235,0.2946162819862366
1730998133160982500,13.181982421875,6.001199245452881,0.4049852192401886,0.38793638348579407
1730998133198920400,13.21992041015625,10.971390724182129,-0.4426721930503845,1.5825530290603638
1730998133236858400,13.2578583984375,10.382457733154297,0.3978067636489868,-1.5873386859893799
1730998133274796500,13.295796630859375,8.385946273803711,-0.6819544434547424,-0.9526425004005432
1730998133312734500,13.333734375,10.799107551574707,0.20847466588020325,-0.10767702013254166
1730998133350672400,13.37167236328125,8.167900085449219,-1.40279221534729,0.1701895147562027
1730998133388610600,13.409610595703125,9.750452995300293,-1.5343974828720093,0.5027918815612793
1730998133426548500,13.447548583984375,9.815059661865234,-1.8574285507202148,0.17497515678405762
1730998133464486700,13.485486572265625,9.62363338470459,-1.7377874851226807,-0.17706887423992157
1730998133502424600,13.523424560546875,7.852047443389893,-1.0339984893798828,-0.7061817646026611
1730998133540362500,13.561362548828125,10.473384857177734,-2.6213371753692627,-1.2831511497497559
1730998133578300700,13.59930078125,10.638788223266602,-2.0539391040802,0.02392822690308094
1730998133616238600,13.637238525390625,9.144769668579102,-2.1185452938079834,0.1052841991186142
1730998133654176800,13.6751767578125,9.750452995300293,-2.4921247959136963,-0.007178467698395252
1730998133692114700,13.71311474609375,9.953843116760254,-2.1975085735321045,-0.15553347766399384
1730998133730052600,13.751052490234375,9.73370361328125,-2.2429721355438232,0.10767702013254166
1730998133767990800,13.78899072265625,9.527920722961426,-2.2549362182617188,-0.19142581522464752
1730998133805928700,13.8269287109375,9.795916557312012,-2.360220432281494,-0.19381862878799438
1730998133843866600,13.86486669921875,9.84138011932373,-2.113759756088257,0.11276176571846008
1730998133881804800,13.9028046875,9.922736167907715,-1.835893154144287,-0.363709032535553
1730998133919742700,13.94074267578125,9.87966537475586,-1.2661023139953613,0.10767702013254166
1730998133957681000,13.978680908203126,9.917950630187988,-0.9071788787841797,-0.18903298676013947
1730998133995618800,14.016618896484376,9.889236450195312,-0.380458801984787,-0.06699903309345245
1730998134033556700,14.054556640625,9.898808479309082,-0.05473581701517105,0.04307080805301666
1730998134071495000,14.092494873046874,9.910772323608398,0.055334024131298065,-0.11006984114646912
1730998134109432800,14.130432861328124,9.905986785888672,0.1989033818244934,-0.04307080805301666
1730998134147370800,14.168370849609374,9.905986785888672,0.2515454888343811,-0.07657032459974289
1730998134185309000,14.206308837890624,9.939486503601074,0.15104693174362183,-0.1052841991186142
1730998134223246800,14.244246826171874,9.915557861328125,0.13190434873104095,-0.07657032459974289
1730998134261185000,14.28218505859375,9.905986785888672,0.16779668629169464,-0.019142581149935722
1730998134299123000,14.320123046875,9.894022941589355,0.1582254022359848,-0.11006984114646912
1730998134337060900,14.358060791015625,9.927521705627441,0.07447660714387894,-0.0526420995593071
1730998134374999000,14.3959990234375,9.894022941589355,0.007477570790797472,-0.07417750358581543
1730998134412937000,14.43393701171875,9.898808479309082,-0.04755735024809837,-0.08135596662759781
1730998134450875000,14.471875,9.913165092468262,-0.0810568705201149,-0.062213387340307236
1730998134488813000,14.50981298828125,9.910772323608398,-0.0930209830403328,-0.08853443711996078
1730998134526751000,14.5477509765625,9.901201248168945,-0.09062815457582474,-0.06939185410737991
1730998134564689000,14.58568896484375,9.894022941589355,-0.09541380405426025,-0.08374879509210587
1730998134602627000,14.623626953125,9.932307243347168,-0.11455638706684113,-0.1339980661869049
1730998134640565000,14.66156494140625,9.898808479309082,-0.06191428750753403,-0.09092725813388824
1730998134678503200,14.699503173828125,9.977771759033203,-0.0810568705201149,-0.33738797903060913
1730998134716440800,14.73744091796875,10.006484985351562,-0.24406790733337402,0.019142581149935722
1730998134754379000,14.77537890625,10.059426307678223,-0.19112670421600342,-0.13160525262355804
1730998134792317200,14.813317138671875,9.85813045501709,-0.28953152894973755,-0.4788636267185211
1730998134830255000,14.851255126953125,9.867701530456543,-0.1863410621881485,-0.8042874932289124
1730998134868193000,14.889193115234375,10.039984703063965,-0.21984058618545532,-0.9454640746116638
1730998134906131200,14.927131103515626,9.95862865447998,-0.4163511395454407,-0.6511468887329102
1730998134944069000,14.965069091796876,9.831809043884277,-0.35892340540885925,-0.4043870270252228
1730998134982007300,15.00300732421875,9.843772888183594,-0.04995017126202583,-0.05742774158716202
1730998135019945200,15.0409453125,9.920343399047852,-0.026021946221590042,0.08135596662759781
1730998135057883100,15.078883056640626,9.925128936767578,-0.07387840002775192,0.1462612897157669
1730998135095821300,15.1168212890625,9.920343399047852,0.033798620104789734,0.27308088541030884
1730998135133759200,15.15475927734375,9.819845199584961,0.0768694281578064,0.10049854964017868
1730998135171697200,15.192697265625,10.061819076538086,-0.19351953268051147,-0.009571290574967861
1730998135209635300,15.23063525390625,9.805487632751465,-0.004486542660742998,0.02153540402650833
1730998135247573200,15.2685732421875,9.812666893005371,0.20368902385234833,0.06699903309345245
1730998135285511400,15.306511474609374,9.917950630187988,0.08883354067802429,0.16779668629169464
1730998135323449300,15.344449462890625,9.877272605895996,0.01704886183142662,0.04785645380616188
1730998135361387300,15.38238720703125,9.877272605895996,0.04576273262500763,-0.0933200865983963
1730998135399325400,15.420325439453125,9.939486503601074,0.02183450572192669,-0.02632104977965355
1730998135437263400,15.458263427734375,9.987342834472656,-0.15523436665534973,0.20368902385234833
1730998135475201300,15.496201171875,9.74806022644043,0.05294119939208031,-0.13160525262355804
1730998135513139500,15.534139404296875,10.020842552185059,-0.5024927258491516,0.4549354016780853
1730998135551077400,15.572077392578125,9.920343399047852,-0.6340979933738708,0.2826521694660187
1730998135589015300,15.610015380859375,9.898808479309082,-0.6532405614852905,0.27786654233932495
1730998135626953500,15.647953369140625,9.908379554748535,-0.6628118753433228,0.19651055335998535
1730998135664891400,15.685891357421875,9.927521705627441,-0.5599204897880554,-0.2679961323738098
1730998135702829300,15.723829345703125,9.901201248168945,-0.24167509377002716,-0.09092725813388824
1730998135740767500,15.761767578125,9.922736167907715,-0.06430710852146149,-0.01196411345154047
1730998135778705400,15.799705322265625,9.877272605895996,0.014656038954854012,-0.0933200865983963
1730998135816643600,15.8376435546875,9.903594017028809,0.07208377867937088,-0.0023928226437419653
1730998135854581500,15.87558154296875,9.88684368133545,0.134297177195549,0.019142581149935722
1730998135892519400,15.91351953125,9.901201248168945,0.10797612369060516,-0.02392822690308094
1730998135930457600,15.95145751953125,9.896415710449219,0.024227328598499298,-0.04307080805301666
1730998135968395500,15.9893955078125,9.910772323608398,-0.09062815457582474,-0.06939185410737991
1730998136006333400,16.02733349609375,9.913165092468262,-0.1504487246274948,-0.05024927482008934
1730998136044271600,16.065271728515626,9.903594017028809,-0.1624128371477127,0.019142581149935722
1730998136082209500,16.10320947265625,9.894022941589355,-0.15284155309200287,-0.02153540402650833
1730998136120147700,16.141147705078126,9.855737686157227,-0.09062815457582474,-0.004785645287483931
1730998136158085600,16.179085693359376,10.231709480285645,-0.16002000868320465,0.12472587823867798
1730998136196023600,16.2170234375,10.078569412231445,-0.03559323772788048,-0.08614161610603333
1730998136233961700,16.254961669921876,9.795916557312012,-0.03080759197473526,-0.05024927482008934
1730998136271899600,16.292899658203126,9.8509521484375,-0.03320041298866272,0.08853443711996078
1730998136309837600,16.330837646484376,9.867701530456543,-0.014057832770049572,0.02871387079358101
1730998136347775700,16.368775634765626,9.76241683959961,0.04097708687186241,-0.24885354936122894
1730998136385713700,16.406713623046876,9.980164527893066,0.2754737138748169,0.4668995141983032
1730998136423651600,16.444651611328126,10.059426307678223,0.13668999075889587,0.2922234535217285
1730998136461589800,16.48258984375,9.877272605895996,0.4504488706588745,0.5626124143600464
1730998136499527700,16.520527587890626,9.99691390991211,0.6945167779922485,0.7519445419311523
1730998136537465900,16.5584658203125,9.683454513549805,0.890728235244751,0.7998009920120239
1730998136575403800,16.59640380859375,10.001699447631836,0.13190434873104095,0.42382872104644775
1730998136613341700,16.634341796875,9.949057579040527,-0.28953152894973755,0.4262215197086334
1730998136651279600,16.672279541015627,10.059426307678223,-0.2847459018230438,0.4501497745513916
1730998136689217800,16.7102177734375,9.987342834472656,-0.040378883481025696,0.6702894568443298
1730998136727155700,16.74815576171875,10.047462463378906,-0.1217348501086235,0.19172491133213043
1730998136765094000,16.786093994140625,9.783952713012695,0.26590242981910706,0.18933209776878357
1730998136803031800,16.82403173828125,9.984950065612793,-0.06430710852146149,-0.44027936458587646
1730998136840969700,16.8619697265625,9.84855842590332,-0.43549370765686035,-0.19621145725250244
1730998136878908000,16.899907958984375,9.980164527893066,-0.3756731450557709,0.059820566326379776
1730998136916845800,16.937845703125,10.025628089904785,-0.49292147159576416,0.04546362906694412
1730998136954783700,16.97578369140625,9.855737686157227,-0.4211367964744568,-0.11724831163883209
1730998136992722000,17.013721923828125,9.728918075561523,-0.6460621356964111,-0.36610186100006104
1730998137030659800,17.051659912109375,10.059426307678223,-0.6005984544754028,0.009571290574967861
1730998137068597800,17.08959765625,9.884450912475586,-0.4163511395454407,0.1701895147562027
1730998137106536000,17.127535888671876,9.901201248168945,-0.519242525100708,-0.1746760457754135
1730998137144473900,17.165473876953126,9.853344917297363,-0.7680960893630981,-1.0151549577713013
1730998137182412000,17.203412109375,9.853344917297363,-0.9311071038246155,-1.2448660135269165
1730998137220350000,17.241349853515626,9.953843116760254,-0.8593224287033081,-0.8569296002388
1730998137258287900,17.279287841796876,9.891630172729492,-0.6747759580612183,-0.3613162338733673
1730998137296226000,17.31722607421875,10.04985523223877,-0.24406790733337402,0.2994019389152527
1730998137334164000,17.3551640625,9.867701530456543,-0.1456630825996399,-0.12681959569454193
1730998137372102000,17.393101806640626,9.846165657043457,-0.13130614161491394,-0.20578274130821228
1730998137410040000,17.4310400390625,9.85813045501709,0.031405795365571976,0.016749758273363113
1730998137447978000,17.46897802734375,9.88684368133545,0.07926224917173386,-0.16271193325519562
1730998137485916000,17.506916015625,9.913165092468262,0.07926224917173386,-0.1052841991186142
1730998137523854000,17.54485400390625,9.853344917297363,0.029012974351644516,-0.13160525262355804
1730998137561792000,17.5827919921875,10.013663291931152,-0.08584251254796982,-0.17946170270442963
1730998137599730200,17.620730224609375,9.874879837036133,-0.09541380405426025,-0.11006984114646912
1730998137637668000,17.658668212890625,9.946664810180664,0.06969095766544342,-0.1579262912273407
1730998137675606000,17.69660595703125,9.824630737304688,-0.05473581701517105,-0.521934449672699
1730998137713544200,17.734544189453125,9.82702350616455,0.01704886183142662,-0.8617152571678162
1730998137751482000,17.772482177734375,9.946664810180664,0.09840483218431473,-0.6726822853088379
1730998137789420000,17.810419921875,9.786345481872559,0.1414756327867508,-0.6272186636924744
1730998137827358200,17.848358154296875,9.877272605895996,0.06011966988444328,-0.5123631358146667
1730998137865296100,17.886296142578125,9.819845199584961,-0.14087744057178497,-0.363709032535553
1730998137903234000,17.924234130859375,9.697811126708984,-0.17198412120342255,-0.29431718587875366
1730998137941172200,17.962172119140625,10.155138969421387,-0.15284155309200287,-0.14117653667926788
1730998137979110100,18.000110107421875,10.068997383117676,-0.3206382393836975,-0.062213387340307236
1730998138017048000,18.038048095703125,9.736096382141113,-0.20069800317287445,-0.22013968229293823
1730998138054986200,18.075986328125,9.882058143615723,-0.49292147159576416,-0.1986042857170105
1730998138092924200,18.113924072265625,9.795916557312012,-0.4163511395454407,-0.24646073579788208
1730998138130862000,18.151862060546875,9.637990951538086,-0.30149564146995544,-0.490827739238739
1730998138168800300,18.18980029296875,9.999306678771973,-0.045164529234170914,0.5937191247940063
1730998138206738200,18.22773828125,10.039984703063965,-0.22971096634864807,1.3025928735733032
1730998138244676000,18.265676025390626,9.85813045501709,-0.23210379481315613,1.0582258701324463
1730998138282614300,18.3036142578125,9.898808479309082,-0.2679961323738098,0.8739784955978394
1730998138320552200,18.34155224609375,9.891630172729492,-0.4426721930503845,0.1462612897157669
1730998138358490400,18.379490478515624,10.052248001098633,-0.32542386651039124,-0.3445664644241333
1730998138396428300,18.41742822265625,9.853344917297363,-0.0690927505493164,0.08135596662759781
1730998138434366200,18.4553662109375,9.853344917297363,-0.004486542660742998,-0.02632104977965355
1730998138472304400,18.493304443359374,9.913165092468262,-0.03320041298866272,-0.07417750358581543
1730998138510242300,18.5312421875,9.87966537475586,-0.011665010824799538,-0.062213387340307236
1730998138548180200,18.56918017578125,9.891630172729492,-0.03320041298866272,-0.02153540402650833
1730998138586118400,18.607118408203124,9.85813045501709,0.23958136141300201,-0.15553347766399384
1730998138624056300,18.645056396484375,9.913165092468262,0.3089732229709625,0.062213387340307236
1730998138661994200,18.682994140625,9.896415710449219,0.44805604219436646,-0.12921242415905
1730998138699932400,18.720932373046875,9.894022941589355,0.5318048596382141,-0.16031911969184875
1730998138737870300,18.758870361328125,9.95145034790039,0.5796613097190857,-0.1579262912273407
1730998138775808300,18.796808349609375,9.98255729675293,0.9723833203315735,-0.2560320198535919
1730998138813746400,18.834746337890625,10.186245918273926,1.2092727422714233,-0.2560320198535919
1730998138851684400,18.872684326171875,10.329814910888672,1.438983678817749,-0.05742774158716202
1730998138889622300,18.910622314453125,9.953843116760254,1.5254244804382324,-0.24885354936122894
1730998138927560400,18.948560546875,10.12881851196289,1.5086746215820312,-0.014356935396790504
1730998138965498400,18.986498291015625,9.738489151000977,1.628315806388855,-0.07896314561367035
1730998139003436300,19.024436279296875,10.205389022827148,1.6522440910339355,-0.35413774847984314
1730998139041374500,19.06237451171875,13.217055320739746,0.3930211067199707,0.39032918214797974
1730998139079312400,19.1003125,12.434303283691406,0.6921239495277405,0.21804596483707428
1730998139117250300,19.138250244140625,12.089437484741211,0.5054838061332703,0.19172491133213043
1730998139155188500,19.1761884765625,12.034402847290039,0.1701895147562027,-0.04546362906694412
1730998139193126400,19.21412646484375,10.427921295166016,0.6873382925987244,-0.33499518036842346
1730998139231064600,19.252064697265624,10.068997383117676,0.3113660514354706,-0.11006984114646912
1730998139269002500,19.29000244140625,9.838987350463867,-0.11455638706684113,-0.28235307335853577
1730998139306940400,19.3279404296875,10.439885139465332,-0.6125625967979431,-0.32303106784820557
1730998139344878600,19.365878662109374,6.8895344734191895,-0.14805589616298676,-0.701396107673645
1730998139382816500,19.40381640625,9.252447128295898,-0.4091726839542389,-0.4378865361213684
1730998139420754400,19.44175439453125,10.234102249145508,-0.06191428750753403,-0.2512463629245758
1730998139458692600,19.479692626953124,10.339386940002441,0.2994019389152527,0.20129621028900146
1730998139496630500,19.517630615234374,10.964212417602539,-0.1624128371477127,-0.06699903309345245
1730998139534568400,19.555568359375,9.269196510314941,-0.5814558863639832,0.0023928226437419653
1730998139572506600,19.593506591796874,6.135496139526367,0.014656038954854012,0.04307080805301666
1730998139610444500,19.631444580078124,9.07537841796875,-0.8282157182693481,0.2515454888343811
1730998139648382500,19.669382568359374,9.573384284973145,-0.48813581466674805,0.1989033818244934
1730998139686320600,19.707320556640624,11.045568466186523,-0.2632105052471161,-0.11724831163883209
1730998139724258600,19.745258544921874,11.4382905960083,0.031405795365571976,0.04546362906694412
1730998139762196500,19.783196533203125,10.894820213317871,0.11276176571846008,-0.20338992774486542
1730998139800134700,19.821134765625,10.025628089904785,-0.32542386651039124,-0.02871387079358101
1730998139838072600,19.859072509765625,8.807083129882812,1.1303095817565918,-0.19381862878799438
1730998139876010500,19.897010498046875,5.836094379425049,0.42412781715393066,-0.28953152894973755
1730998139913948700,19.93494873046875,8.67308521270752,0.40737804770469666,-0.23210379481315613
1730998139951886600,19.972886474609375,9.204590797424316,0.9580263495445251,-0.37806597352027893
1730998139989824500,20.010824462890625,11.179865837097168,0.11515458673238754,0.03349951654672623
1730998140027762700,20.0487626953125,10.689038276672363,0.08644071966409683,-0.1052841991186142
1730998140065700600,20.08670068359375,10.147960662841797,-0.5168496966362,-0.28953152894973755
1730998140103638500,20.124638427734375,10.744072914123535,0.46002015471458435,-0.3684946894645691
1730998140141576700,20.16257666015625,8.493622779846191,0.263509601354599,-0.22492532432079315
1730998140179514600,20.2005146484375,8.8740816116333,0.5222335457801819,-0.2967100143432617
1730998140217452500,20.23845263671875,9.970592498779297,-0.133698970079422,0.05742774158716202
1730998140255390700,20.276390625,10.892427444458008,-0.8282157182693481,0.20847466588020325
1730998140293328600,20.31432861328125,7.818548202514648,0.7184450030326843,-0.27038896083831787
1730998140331266600,20.3522666015625,8.117650985717773,-0.06669992953538895,-0.10049854964017868
1730998140369204700,20.390204833984374,8.840581893920898,0.30179476737976074,-0.09092725813388824
1730998140407142700,20.428142578125,9.707382202148438,0.37148571014404297,0.2347957193851471
1730998140445080800,20.466080810546874,10.480563163757324,0.014656038954854012,0.2946162819862366
1730998140483018800,20.504018798828124,9.98255729675293,0.584446907043457,0.5291129350662231
1730998140520956700,20.541956787109374,9.367302894592285,-1.83828604221344,0.43579283356666565
1730998140558894800,20.579894775390624,11.89322566986084,-0.12412767112255096,-0.41874396800994873
1730998140596832800,20.617832763671874,10.710573196411133,-0.6125625967979431,-0.3278166949748993
1730998140634770700,20.655770751953124,10.636395454406738,-0.27038896083831787,-0.31824541091918945
1730998140672708900,20.693708984375,11.565110206604004,0.024227328598499298,-0.3852444589138031
1730998140710646800,20.731646728515624,9.278767585754395,0.3643072545528412,-0.5267201066017151
1730998140748584700,20.769584716796874,11.361720085144043,-1.2541381120681763,0.7974081635475159
1730998140786523000,20.80752294921875,12.809975624084473,0.3089732229709625,0.5195416212081909
1730998140824460800,20.845460693359374,10.945070266723633,0.024227328598499298,-0.16031911969184875
1730998140862398700,20.883398681640625,10.265209197998047,0.21326032280921936,-0.06699903309345245
1730998140900337000,20.9213369140625,10.241280555725098,0.7016952633857727,0.42382872104644775
1730998140938274800,20.95927490234375,10.179067611694336,1.5326029062271118,1.1228320598602295
1730998140976212700,20.997212646484375,10.672287940979004,-0.5742774605751038,0.9002995491027832
1730998141014151000,21.03515087890625,11.301899909973145,0.49351966381073,0.4046861231327057
1730998141052088800,21.0730888671875,10.473384857177734,0.2802593410015106,0.134297177195549
1730998141090026800,21.11102685546875,10.748858451843262,0.35473597049713135,0.6343970894813538
1730998141127965000,21.14896484375,9.920343399047852,0.11994023621082306,0.4046861231327057
1730998141165902800,21.18690283203125,9.008378982543945,0.06011966988444328,0.48364928364753723
1730998141203840800,21.2248408203125,9.302696228027344,0.6514459848403931,0.6343970894813538
1730998141241779000,21.262779052734373,9.922736167907715,-0.33020952343940735,0.46450668573379517
1730998141279716900,21.300716796875,10.614860534667969,-0.7561319470405579,1.017547845840454
1730998141317654800,21.33865478515625,10.590633392333984,-0.672383189201355,0.802193820476532
1730998141355593000,21.376593017578124,12.53001594543457,-2.693121910095215,1.2547364234924316
1730998141393531000,21.41453076171875,11.05753231048584,-0.3900300860404968,0.9529415965080261
1730998141431468800,21.45246875,8.768797874450684,0.024227328598499298,0.11006984114646912
1730998141469407000,21.490406982421874,9.683454513549805,-0.6795616149902344,-0.0933200865983963
1730998141507345000,21.528344970703124,9.50638484954834,-0.4905286431312561,0.2826521694660187
1730998141545282800,21.56628271484375,11.728120803833008,-0.5359922647476196,0.6248258352279663
1730998141583220500,21.604220458984376,11.107781410217285,-0.5623133182525635,0.706480860710144
1730998141621159000,21.642158935546874,10.964212417602539,0.2347957193851471,0.5027918815612793
1730998141659096800,21.680096923828124,10.272387504577637,0.3451646566390991,0.3233301639556885
1730998141697035000,21.718034912109374,9.721739768981934,0.649053156375885,-0.26560330390930176
1730998141734973000,21.755972900390624,10.296316146850586,-1.5607185363769531,0.2826521694660187
1730998141772910800,21.793910888671874,8.967700958251953,0.06251249462366104,-0.12203395366668701
1730998141810849000,21.83184912109375,10.305887222290039,0.24197418987751007,-0.016749758273363113
1730998141848787000,21.869786865234374,10.698609352111816,-0.23688943684101105,0.01196411345154047
1730998141886724900,21.907724853515624,10.396814346313477,-0.17198412120342255,0.24436701834201813
1730998141924663000,21.9456630859375,11.567502975463867,-1.8502501249313354,0.5554339289665222
1730998141962601000,21.98360107421875,10.976176261901855,-0.0690927505493164,0.062213387340307236
1730998142000539000,22.021538818359375,12.448659896850586,-0.11216355860233307,0.39032918214797974
1730998142038477000,22.05947705078125,11.67996597290039,-0.7178468108177185,-0.02632104977965355
1730998142076415000,22.0974150390625,11.05753231048584,-0.23449662327766418,-0.2679961323738098
1730998142114353000,22.135352783203125,11.500503540039062,-1.7138592004776,0.33529427647590637
1730998142152291000,22.173291015625,9.800702095031738,-0.10259227454662323,-0.16271193325519562
1730998142190229000,22.21122900390625,10.327422142028809,0.2515454888343811,-0.33738797903060913
1730998142228167000,22.2491669921875,9.95145034790039,-0.8449655175209045,-0.524327278137207
1730998142266105000,22.28710498046875,8.819046974182129,0.1701895147562027,-0.12442677468061447
1730998142304043000,22.32504296875,12.175579071044922,0.6346961855888367,0.4262215197086334
1730998142341981000,22.36298095703125,10.26042366027832,-0.19112670421600342,-0.37088751792907715
1730998142379919000,22.400919189453123,11.634501457214355,0.4049852192401886,-0.397208571434021
1730998142417857000,22.43885693359375,10.823036193847656,-0.0690927505493164,-0.3038884699344635
1730998142455795000,22.476794921875,9.63081169128418,-0.4259224236011505,-0.2392822653055191
1730998142493733000,22.514733154296874,9.290732383728027,-0.042771704494953156,-0.7205387353897095
1730998142531671000,22.552671142578124,10.578668594360352,0.20608185231685638,-0.23688943684101105
1730998142569609000,22.59060888671875,9.513564109802246,-0.45224347710609436,-0.4259224236011505
1730998142607547100,22.628547119140624,10.94028377532959,-0.18155542016029358,-0.701396107673645
1730998142645485000,22.666485107421874,11.423933982849121,-0.2967100143432617,-0.1579262912273407
1730998142683423000,22.704423095703124,10.454241752624512,-0.23688943684101105,-0.3397808074951172
1730998142721361200,22.742361083984374,9.348159790039062,0.12472587823867798,-0.6918248534202576
1730998142759299000,22.780299072265624,8.574978828430176,0.40737804770469666,-0.7803592681884766
1730998142797237000,22.818237060546874,8.771190643310547,0.8644071817398071,-0.2991028428077698
1730998142835175200,22.856175048828124,9.216554641723633,-0.2150549292564392,-0.10767702013254166
1730998142873113000,22.894113037109374,8.277970314025879,0.17736798524856567,-0.5362913608551025
1730998142911051000,22.932051025390624,7.75842809677124,0.7878368496894836,-0.8976075649261475
1730998142948989200,22.9699892578125,8.842975616455078,-0.06669992953538895,-0.10049854964017868
1730998142986927000,23.007927001953124,9.980164527893066,0.04576273262500763,0.4501497745513916
1730998143024865000,23.045864990234374,9.474979400634766,0.22761724889278412,0.5362913608551025
1730998143062803200,23.08380322265625,11.019247055053711,0.4336991012096405,-0.040677983313798904
1730998143100741000,23.1217412109375,10.636395454406738,0.01704886183142662,0.07657032459974289
1730998143138679000,23.159678955078125,10.791929244995117,0.5365904569625854,0.016749758273363113
1730998143176617000,23.197616943359375,11.79272747039795,-0.9885348677635193,0.37118661403656006
1730998143214555100,23.23555517578125,10.79432201385498,-0.42352959513664246,-0.1052841991186142
1730998143252493000,23.2734931640625,8.78794002532959,0.39541393518447876,-0.4860421121120453
1730998143290431000,23.311430908203125,8.977272033691406,-0.2560320198535919,-0.2560320198535919
1730998143328369200,23.349369140625,9.527920722961426,-0.48095735907554626,-0.24885354936122894
1730998143366307000,23.38730712890625,8.325826644897461,1.1422736644744873,0.12711870670318604
1730998143404245000,23.425244873046875,8.778368949890137,0.20129621028900146,0.39990049600601196
1730998143442183200,23.46318310546875,11.72542953491211,0.07447660714387894,0.11276176571846008
1730998143480121000,23.50112109375,10.50209903717041,0.20847466588020325,0.1869392693042755
1730998143518059000,23.53905908203125,9.843772888183594,0.17976079881191254,0.2826521694660187
1730998143555997200,23.5769970703125,9.49202823638916,-0.4259224236011505,0.20129621028900146
1730998143593935000,23.61493505859375,11.35932731628418,-0.3756731450557709,0.2922234535217285
1730998143631873000,23.652873046875,10.15753173828125,-0.2584248483181,-0.3445664644241333
1730998143669811200,23.690811279296874,9.604491233825684,-0.3684946894645691,-0.3900300860404968
1730998143707749000,23.7287490234375,9.898808479309082,-0.8138588070869446,0.19651055335998535
1730998143745687000,23.76668701171875,7.41625452041626,-0.8712865710258484,-0.08853443711996078
1730998143783625200,23.804625244140624,9.125627517700195,-0.06430710852146149,-0.15314064919948578
1730998143821563100,23.842563232421874,9.501599311828613,-0.15284155309200287,-0.3158525824546814
1730998143859501000,23.8805009765625,10.590633392333984,-0.07148557901382446,0.27308088541030884
1730998143897439200,23.918439208984374,10.411170959472656,0.029012974351644516,-0.035892341285943985
1730998143935377200,23.956377197265624,8.615656852722168,0.7232306599617004,-0.5961119532585144
1730998143973315000,23.994315185546874,8.242077827453613,0.5006981492042542,-0.23449662327766418
1730998144011253200,24.032253173828124,9.266803741455078,0.8644071817398071,-0.4860421121120453
1730998144049191200,24.070191162109374,11.787941932678223,-0.8904291391372681,-0.363709032535553
1730998144087129000,24.108129150390624,10.494919776916504,-1.251745343208313,-0.17946170270442963
1730998144125067300,24.1460673828125,10.854142189025879,-0.5383850932121277,0.385543555021286
1730998144163005200,24.184005126953124,11.201400756835938,-0.3684946894645691,0.26111677289009094
1730998144200943000,24.221943115234374,11.071889877319336,-0.6580262184143066,-0.02871387079358101
1730998144238881000,24.259881103515625,10.380064964294434,-0.05712864175438881,0.38793638348579407
1730998144276819200,24.297819091796875,10.066604614257812,0.373878538608551,-0.10049854964017868
1730998144314757000,24.335757080078125,11.416754722595215,-0.4043870270252228,0.2826521694660187
1730998144352695000,24.373695068359375,13.645668983459473,-0.4378865361213684,0.40707895159721375
1730998144390633200,24.41163330078125,11.505289077758789,-0.24646073579788208,0.05742774158716202
1730998144428571100,24.449571044921875,8.749654769897461,0.2874378263950348,-0.3278166949748993
1730998144466509000,24.487509033203125,9.163912773132324,-0.5000999569892883,-0.5291129350662231
1730998144504447200,24.525447265625,10.497312545776367,-0.10019944608211517,0.3041875660419464
1730998144542385200,24.56338525390625,8.689834594726562,-0.014057832770049572,-0.14835500717163086
1730998144580323000,24.601322998046875,8.505587577819824,0.42412781715393066,-0.31345975399017334
1730998144618261200,24.63926123046875,11.146066665649414,-0.4785645306110382,-0.08374879509210587
1730998144656199200,24.67719921875,7.552645683288574,0.1295115202665329,-0.4621138870716095
1730998144694137000,24.71513720703125,6.82014274597168,0.828514814376831,-0.6320042610168457
1730998144732075300,24.7530751953125,8.275577545166016,0.7112665176391602,-0.2799602448940277
1730998144770013200,24.79101318359375,10.078569412231445,-0.07148557901382446,0.08853443711996078
1730998144807951000,24.828951171875,11.76162052154541,-0.48095735907554626,1.0390832424163818
1730998144845889300,24.86688916015625,10.660324096679688,-0.7441678643226624,-0.2727817893028259
1730998144883827200,24.9048271484375,10.365707397460938,-0.02841476909816265,0.490827739238739
1730998144921765000,24.94276513671875,9.86530876159668,0.18454644083976746,-0.2727817893028259
1730998144959703300,24.980703369140624,9.202198028564453,0.11276176571846008,-0.1339980661869049
1730998144997641200,25.01864111328125,6.958926677703857,-0.380458801984787,-0.41874396800994873
1730998145035579100,25.0565791015625,8.653942108154297,-0.004486542660742998,0.14865410327911377
1730998145073517300,25.094517333984374,10.277173042297363,-0.3924229145050049,0.13668999075889587
1730998145111455200,25.132455322265624,10.571490287780762,-0.30149564146995544,-0.007178467698395252
1730998145149393200,25.17039306640625,10.322636604309082,-0.4498506486415863,-0.7372884750366211
1730998145187331000,25.2083310546875,12.506087303161621,-0.042771704494953156,-0.14835500717163086
1730998145225269200,25.246269287109374,12.283255577087402,-0.17916259169578552,0.3520440459251404
1730998145263207200,25.284207275390624,10.313065528869629,-0.02841476909816265,0.40707895159721375
1730998145301145000,25.32214501953125,8.02193832397461,-0.8258228898048401,0.4549354016780853
1730998145339083300,25.360083251953125,9.559027671813965,0.6323033571243286,0.37836506962776184
1730998145377021200,25.398021240234375,9.147162437438965,0.6873382925987244,0.1175474151968956
1730998145414959000,25.435958984375,9.254839897155762,0.6705885529518127,0.7758727669715881
1730998145452897300,25.473897216796875,8.914759635925293,0.5940182209014893,0.3975076675415039
1730998145490835200,25.511835205078125,9.178269386291504,-0.6747759580612183,0.4980062246322632
1730998145528773000,25.549773193359375,9.757631301879883,0.014656038954854012,0.42382872104644775
1730998145566711000,25.5877109375,9.396016120910645,-0.03080759197473526,0.4334000051021576
1730998145604649200,25.625649169921875,8.708976745605469,0.9652048349380493,0.4142574071884155
1730998145642587100,25.663587158203125,9.008378982543945,-0.002093719784170389,0.4142574071884155
1730998145680525000,25.701525146484375,8.433802604675293,0.49351966381073,0.8859425783157349
1730998145718463200,25.739463134765625,9.870094299316406,-0.5910272002220154,0.6655037999153137
1730998145756401200,25.777401123046875,10.820643424987793,-0.26081767678260803,1.7021942138671875
1730998145794339000,25.815339111328125,9.262018203735352,0.4911268353462219,0.9625129103660583
1730998145832277200,25.85327734375,10.107282638549805,-0.7513462901115417,1.285843014717102
1730998145870215200,25.891215087890625,11.77597713470459,-0.605384111404419,1.3624134063720703
1730998145908153000,25.929153076171875,10.672287940979004,-0.5120640397071838,0.5147559642791748
1730998145946091300,25.96709130859375,8.165507316589355,0.5318048596382141,-0.064606212079525
1730998145984029200,26.005029296875,9.317052841186523,-0.1624128371477127,-0.45972105860710144
1730998146021967000,26.042967041015626,9.037093162536621,-0.05952146276831627,-0.02392822690308094
1730998146059905300,26.0809052734375,10.102497100830078,-0.8114659786224365,0.27308088541030884
1730998146097843200,26.11884326171875,11.44546890258789,-0.8162516355514526,-0.4163511395454407
1730998146135781000,26.156781005859376,8.744869232177734,-0.05473581701517105,-0.5434698462486267
1730998146173719000,26.194718994140626,9.295517921447754,0.05054837837815285,0.706480860710144
1730998146211657200,26.2326572265625,11.165508270263672,-0.23210379481315613,0.6559324860572815
1730998146249595100,26.27059521484375,8.541479110717773,-0.10019944608211517,0.2874378263950348
1730998146287533000,26.308532958984376,9.467801094055176,0.49351966381073,-0.8042874932289124
1730998146325471200,26.34647119140625,8.653942108154297,0.3161516785621643,-0.02871387079358101
1730998146363409200,26.3844091796875,8.921937942504883,0.5126622319221497,0.2946162819862366
1730998146401347000,26.42234716796875,7.8424763679504395,0.9891330599784851,-0.23688943684101105
1730998146439285000,26.460284912109376,9.106484413146973,-0.607776939868927,-0.014356935396790504
1730998146477223200,26.49822314453125,10.72253704071045,-0.8617152571678162,0.040677983313798904
1730998146515161000,26.5361611328125,10.887641906738281,-1.2110673189163208,-0.08374879509210587
1730998146553099000,26.57409912109375,9.477372169494629,-0.2991028428077698,-1.1180464029312134
1730998146591037200,26.612037109375,6.288637161254883,0.1295115202665329,-1.280758261680603
1730998146628975000,26.64997509765625,9.329017639160156,-0.4713860750198364,-0.8473583459854126
1730998146666913000,26.6879130859375,10.293923377990723,0.055334024131298065,-0.8569296002388
1730998146704851200,26.725851318359375,10.195816993713379,-0.2392822653055191,-0.7588238716125488
1730998146742789000,26.7637890625,10.1216402053833,-1.6755740642547607,-0.610468864440918
1730998146780727000,26.80172705078125,11.840583801269531,0.009870393201708794,-1.7715860605239868
1730998146818665200,26.839665283203125,10.375279426574707,0.3930211067199707,-1.77397882938385
1730998146856603100,26.87760302734375,10.214960098266602,0.737587571144104,-1.8409779071807861
1730998146894541000,26.915541015625,9.776774406433105,-0.17676977813243866,-1.3836497068405151
1730998146932479000,26.95347900390625,10.844571113586426,-0.30628129839897156,-0.9550353288650513
1730998146970417200,26.991417236328125,9.688240051269531,-0.35892340540885925,-2.020439624786377
1730998147008355000,27.02935498046875,9.362516403198242,-0.8377870321273804,-1.6328023672103882
1730998147046293000,27.06729296875,9.824630737304688,-0.42352959513664246,-1.201795220375061
1730998147084231200,27.105231201171875,10.066604614257812,-0.2632105052471161,-0.6607181429862976
1730998147122169000,27.143169189453126,9.903594017028809,0.08404789865016937,-1.7979071140289307
1730998147160107000,27.18110693359375,9.238089561462402,-0.3924229145050049,-0.9909276962280273
1730998147198045000,27.219044921875,11.850154876708984,-0.9909276962280273,-1.2903295755386353
1730998147235983000,27.256983154296876,9.556634902954102,-0.2871387302875519,-1.0271191596984863
1730998147273921000,27.294921142578126,10.183853149414062,1.0968101024627686,-0.3852444589138031
1730998147311859000,27.33285888671875,9.283554077148438,-0.33020952343940735,-0.7851449251174927
1730998147349797000,27.370797119140626,9.657133102416992,-0.88803631067276,-1.4434702396392822
1730998147387735000,27.408735107421876,9.917950630187988,-0.5694918036460876,-0.8784649968147278
1730998147425673000,27.4466728515625,8.96530818939209,-0.5742774605751038,-0.7085745930671692
1730998147463611000,27.48461083984375,10.746465682983398,0.0649053156375885,-0.6367899179458618
1730998147501549000,27.522549072265626,7.964509963989258,1.5206388235092163,-0.1866401731967926
1730998147539487000,27.560487060546876,8.735298156738281,1.6522440910339355,-0.8210372924804688
1730998147577425000,27.5984248046875,11.175080299377441,1.1303095817565918,-0.3517449200153351
1730998147615363000,27.636363037109376,10.15035343170166,-0.042771704494953156,0.11276176571846008
1730998147653301000,27.674301025390626,6.781857490539551,1.3073785305023193,0.009571290574967861
1730998147691239000,27.712239013671876,10.358529090881348,0.28504499793052673,-0.06699903309345245
1730998147729177000,27.750177001953126,10.823036193847656,0.3523431420326233,-0.8928219676017761
1730998147767115000,27.788114990234376,10.138389587402344,-0.3038884699344635,-0.6248258352279663
1730998147805053000,27.826052978515627,9.618847846984863,-1.771286964416504,0.17976079881191254
1730998147842990800,27.863990966796877,8.383553504943848,-0.02841476909816265,-0.08374879509210587
1730998147880929000,27.901928955078127,9.815059661865234,-0.9502496719360352,-0.5913262963294983
1730998147918867000,27.939866943359377,10.06421184539795,-0.14087744057178497,-0.2225325107574463
1730998147956804900,27.977804931640627,8.601300239562988,-0.14087744057178497,-0.30628129839897156
1730998147994743000,28.015742919921873,13.178770065307617,-1.1703894138336182,0.038285162299871445
1730998148032681000,28.053680908203123,12.01765251159668,-0.6005984544754028,-0.031106693670153618
1730998148070619000,28.091618896484373,10.775179862976074,-0.5575276613235474,0.33529427647590637
1730998148108556800,28.129556884765623,10.454241752624512,-0.8258228898048401,0.6224330067634583
1730998148146495000,28.167494873046873,8.072187423706055,0.8141579031944275,0.12711870670318604
1730998148184433000,28.205432861328124,9.448657989501953,-0.4833501875400543,0.246759831905365
1730998148222370800,28.243370849609374,10.600204467773438,-0.18873389065265656,-0.02632104977965355
1730998148260308700,28.281308837890624,10.973783493041992,-0.7034898400306702,0.6367899179458618
1730998148298247000,28.319246826171874,10.703394889831543,-1.1679965257644653,-0.2560320198535919
1730998148336184800,28.357184814453124,8.491230010986328,-0.2030908167362213,0.802193820476532
1730998148374122800,28.395122802734374,10.581061363220215,-1.4171491861343384,0.13908281922340393
1730998148412061000,28.43306103515625,10.293923377990723,-1.994118571281433,-0.14835500717163086
1730998148449998800,28.470998779296874,10.327422142028809,-2.520838737487793,-0.33020952343940735
1730998148487936800,28.508936767578124,10.581061363220215,-2.5160529613494873,0.3113660514354706
1730998148525874700,28.546874755859374,7.442575931549072,-2.0419750213623047,-0.41156548261642456
1730998148563812900,28.584812744140624,9.518349647521973,-1.9630118608474731,0.385543555021286
1730998148601750800,28.622750732421874,10.71535873413086,-1.7258232831954956,0.08853443711996078
1730998148639688700,28.660688720703124,10.473384857177734,-1.8693926334381104,-0.11724831163883209
1730998148677627000,28.698626953125,10.681859016418457,-2.388934373855591,-0.09092725813388824
1730998148715564800,28.736564697265624,10.138389587402344,-2.1664018630981445,-0.18903298676013947
1730998148753502700,28.774502685546874,10.248459815979004,-2.779263496398926,0.1175474151968956
1730998148791440600,28.812440673828124,9.75523853302002,-2.2908284664154053,0.12472587823867798
1730998148829378800,28.85037890625,9.87966537475586,-2.2597219944000244,0.09092725813388824
1730998148867316700,28.888316650390625,9.673882484436035,-2.0156540870666504,-0.14356936514377594
1730998148905254700,28.926254638671875,9.803094863891602,-1.7018951177597046,-0.12203395366668701
1730998148943192800,28.96419287109375,9.853344917297363,-1.2397812604904175,-0.07178468257188797
1730998148981130800,29.002130859375,9.917950630187988,-0.7875377535820007,0.040677983313798904
1730998149019068700,29.040068603515625,9.910772323608398,-0.4139583110809326,-0.08135596662759781
1730998149057006600,29.078006591796875,9.898808479309082,-0.133698970079422,0.02871387079358101
1730998149094944500,29.115944580078125,9.891630172729492,0.0026919255033135414,-0.1052841991186142
1730998149132882700,29.153882568359375,9.903594017028809,0.10079765319824219,-0.07417750358581543
1730998149170820600,29.191820556640625,9.88684368133545,0.11994023621082306,0.03349951654672623
1730998149208758500,29.229758544921875,9.920343399047852,0.08404789865016937,-0.14117653667926788
1730998149246696700,29.26769677734375,9.884450912475586,0.03858426585793495,-0.09810572862625122
1730998149284634600,29.305634521484375,9.896415710449219,-0.021236300468444824,-0.0023928226437419653
1730998149322572500,29.343572509765625,9.905986785888672,-0.14087744057178497,-0.10289137065410614
1730998149360510500,29.381510498046875,9.898808479309082,-0.21266211569309235,-0.038285162299871445
1730998149398448600,29.41944873046875,9.891630172729492,-0.27038896083831787,-0.08853443711996078
1730998149436386600,29.457386474609375,9.901201248168945,-0.2919243574142456,-0.08135596662759781
1730998149474324500,29.495324462890625,9.908379554748535,-0.30149564146995544,-0.06699903309345245
1730998149512262400,29.533262451171876,9.903594017028809,-0.2727817893028259,-0.07896314561367035
1730998149550200600,29.57120068359375,9.874879837036133,-0.21266211569309235,-0.05503492057323456
1730998149588138500,29.609138427734376,9.891630172729492,-0.17676977813243866,-0.06939185410737991
1730998149626076400,29.647076416015626,9.913165092468262,-0.16959130764007568,-0.07178468257188797
1730998149664014600,29.6850146484375,9.898808479309082,-0.18394823372364044,-0.064606212079525
1730998149701952500,29.722952392578126,9.901201248168945,-0.1983051747083664,-0.07178468257188797
1730998149739890400,29.760890380859376,9.894022941589355,-0.21984058618545532,-0.06699903309345245
1730998149777828400,29.798828369140626,9.898808479309082,-0.21984058618545532,-0.06939185410737991
1730998149815766500,29.8367666015625,9.908379554748535,-0.21744775772094727,-0.06699903309345245
1730998149853704400,29.874704345703126,9.87966537475586,-0.20069800317287445,-0.06939185410737991
1730998149891642400,29.912642333984376,9.896415710449219,-0.20787647366523743,-0.062213387340307236
1730998149929580300,29.950580322265626,9.884450912475586,-0.21744775772094727,-0.07178468257188797
1730998149967518500,29.9885185546875,9.910772323608398,-0.2150549292564392,-0.07178468257188797
1730998150005456400,30.026456298828126,9.891630172729492,-0.1983051747083664,-0.07178468257188797
1730998150043394300,30.064394287109376,9.898808479309082,-0.19112670421600342,-0.07657032459974289
1730998150081332200,30.102332275390626,9.882058143615723,-0.1983051747083664,-0.062213387340307236
1730998150119270400,30.1402705078125,9.896415710449219,-0.2102692872285843,-0.06939185410737991
1730998150157208300,30.178208251953127,9.882058143615723,-0.21266211569309235,-0.062213387340307236
1730998150195146200,30.216146240234377,9.898808479309082,-0.20069800317287445,-0.06699903309345245
1730998150233084200,30.254084228515627,9.88684368133545,-0.20069800317287445,-0.06939185410737991
1730998150271022300,30.292022216796877,9.898808479309082,-0.19591236114501953,-0.07417750358581543
1730998150308960300,30.329960205078127,9.896415710449219,-0.19591236114501953,-0.064606212079525
1730998150346898200,30.367898193359373,9.917950630187988,-0.20548364520072937,-0.062213387340307236
1730998150384836000,30.405836181640623,9.896415710449219,-0.21744775772094727,-0.07417750358581543
1730998150422774300,30.443774169921873,9.882058143615723,-0.20548364520072937,-0.07657032459974289
1730998150460712200,30.481712158203123,9.920343399047852,-0.1983051747083664,-0.05742774158716202
1730998150498650000,30.519650146484373,9.87966537475586,-0.20787647366523743,-0.062213387340307236
1730998150536588000,30.557588134765624,9.898808479309082,-0.1983051747083664,-0.07178468257188797
1730998150574526200,30.595526123046874,9.908379554748535,-0.2030908167362213,-0.05742774158716202
1730998150612464000,30.633464111328124,9.88684368133545,-0.20548364520072937,-0.08135596662759781
1730998150650402000,30.671402099609374,9.88684368133545,-0.1983051747083664,-0.062213387340307236
1730998150688340200,30.70934033203125,9.894022941589355,-0.20069800317287445,-0.064606212079525
1730998150726278100,30.747278076171874,9.905986785888672,-0.2102692872285843,-0.059820566326379776
1730998150764216000,30.785216064453124,9.908379554748535,-0.20069800317287445,-0.08374879509210587
1730998150802154000,30.823154052734374,9.88684368133545,-0.2102692872285843,-0.059820566326379776
1730998150840092200,30.861092041015624,9.88684368133545,-0.20069800317287445,-0.07417750358581543
1730998150878030000,30.899030029296874,9.905986785888672,-0.20787647366523743,-0.062213387340307236
1730998150915968000,30.936968017578124,9.894022941589355,-0.2150549292564392,-0.07178468257188797
1730998150953906000,30.974906005859374,9.917950630187988,-0.20787647366523743,-0.064606212079525
1730998150991843800,31.01284375,9.896415710449219,-0.20787647366523743,-0.062213387340307236
1730998151029782000,31.050781982421874,9.898808479309082,-0.21266211569309235,-0.062213387340307236
1730998151067720000,31.088719970703124,9.898808479309082,-0.2102692872285843,-0.059820566326379776
1730998151105657900,31.126657958984374,9.910772323608398,-0.1983051747083664,-0.062213387340307236
1730998151143595800,31.164595703125,9.822237968444824,0.1869392693042755,-0.12203395366668701
1730998151181534000,31.202533935546874,9.910772323608398,0.31854450702667236,0.019142581149935722
1730998151219472000,31.240471923828125,9.877272605895996,0.16540385782718658,0.05742774158716202
1730998151257409800,31.278409912109375,9.862915992736816,-0.2991028428077698,-0.031106693670153618
1730998151295347700,31.31634765625,9.87248706817627,-0.5216353535652161,-0.19621145725250244
1730998151333286000,31.354285888671875,9.932307243347168,-0.5647061467170715,-0.02632104977965355
1730998151371223800,31.392223876953125,9.889236450195312,-0.5312066078186035,-0.07896314561367035
1730998151409161700,31.43016162109375,9.894022941589355,-0.41156548261642456,-0.08135596662759781
1730998151447099600,31.468099609375,9.882058143615723,-0.26081767678260803,-0.06699903309345245
1730998151485037800,31.506037841796875,9.910772323608398,0.04336991161108017,-0.08853443711996078
1730998151522975700,31.543975830078125,9.927521705627441,0.2802593410015106,-0.038285162299871445
1730998151560913700,31.58191357421875,9.915557861328125,0.4145565330982208,-0.07178468257188797
1730998151598851600,31.6198515625,9.95145034790039,0.3329014480113983,-0.019142581149935722
1730998151636789800,31.657789794921875,9.95862865447998,0.21565313637256622,-0.05742774158716202
1730998151674727700,31.695727783203125,9.731310844421387,-0.08344969153404236,-0.24167509377002716
1730998151712665600,31.73366552734375,9.822237968444824,-0.24406790733337402,0.16540385782718658
1730998151750603500,31.771603515625,9.85813045501709,-0.3613162338733673,-0.1339980661869049
1730998151788541400,31.80954150390625,9.946664810180664,-0.28953152894973755,-0.07657032459974289
1730998151826479600,31.847479736328125,9.894022941589355,0.23718854784965515,-0.062213387340307236
1730998151864417500,31.88541748046875,9.829416275024414,0.7543373107910156,0.02871387079358101
1730998151902355500,31.92335546875,9.769596099853516,1.2092727422714233,-0.009571290574967861
1730998151940293400,31.96129345703125,9.664311408996582,1.4632110595703125,-0.4956133961677551
1730998151978231600,31.9992314453125,9.896415710449219,1.6761722564697266,-0.26560330390930176
1730998152016169500,32.03716943359375,10.169496536254883,1.3576277494430542,-0.31824541091918945
1730998152054107400,32.075107421875,10.066604614257812,1.568495273590088,-0.2225325107574463
1730998152092045300,32.11304541015625,9.556634902954102,1.3887344598770142,-0.16510476171970367
1730998152129983200,32.150983154296874,9.472586631774902,0.9436694383621216,-0.7875377535820007
1730998152167921400,32.18892138671875,9.901201248168945,0.7830511927604675,-0.5937191247940063
1730998152205859300,32.226859375,9.760024070739746,0.9388837814331055,-1.2592228651046753
1730998152243797200,32.26479736328125,9.386445045471191,1.6091731786727905,-0.9717850685119629
1730998152281735200,32.302735107421874,11.318649291992188,0.9484550952911377,-0.22013968229293823
1730998152319673300,32.34067333984375,11.02881908416748,1.2499507665634155,-1.3046865463256836
1730998152357611300,32.378611328125,11.340185165405273,0.33798620104789734,-0.768395185470581
1730998152395549200,32.416549072265624,10.557133674621582,0.7112665176391602,-0.6870391964912415
1730998152433487000,32.454487060546874,10.985748291015625,0.16540385782718658,-0.9430712461471558
1730998152471425300,32.49242529296875,10.593026161193848,1.1853444576263428,-0.4139583110809326
1730998152509363200,32.53036328125,12.949058532714844,0.4384847581386566,-0.45972105860710144
1730998152547301000,32.568301025390625,10.487741470336914,1.1063814163208008,-0.3158525824546814
1730998152585239000,32.606239013671875,10.327422142028809,1.812563180923462,-0.5267201066017151
1730998152623177000,32.644177001953125,8.527122497558594,0.39062830805778503,-0.4549354016780853
1730998152661115100,32.682115234375,9.635597229003906,-0.9813563823699951,0.3496512174606323
1730998152699053000,32.720052978515625,7.820940971374512,-0.1743769496679306,0.47647079825401306
1730998152736991000,32.757990966796875,10.573883056640625,0.30179476737976074,0.8955138921737671
1730998152774929000,32.795928955078125,8.754440307617188,0.7830511927604675,0.771087110042572
1730998152812866800,32.83386669921875,10.195816993713379,-0.3445664644241333,0.6849454641342163
1730998152850805000,32.871804931640625,8.866903305053711,0.30658039450645447,1.1371889114379883
1730998152888743000,32.909742919921875,10.415956497192383,-0.021236300468444824,0.1175474151968956
1730998152926680800,32.947680908203125,9.309874534606934,-0.30628129839897156,0.5027918815612793
1730998152964618800,32.98561865234375,8.500801086425781,-0.14805589616298676,0.6583253145217896
1730998153002557000,33.023556884765625,9.305088996887207,-0.2273181527853012,0.8237292170524597
1730998153040494800,33.061494873046875,10.94267749786377,0.00029910283046774566,0.1701895147562027
1730998153078432800,33.099432861328125,10.351350784301758,-0.8497511148452759,0.5817549824714661
1730998153116370700,33.13737060546875,10.045069694519043,-0.24885354936122894,1.0103694200515747
1730998153154308600,33.17530859375,9.178269386291504,-0.9454640746116638,1.5897315740585327
1730998153192246800,33.213246826171876,12.161222457885742,-0.6771687865257263,0.6678966283798218
1730998153230184700,33.251184814453126,10.26760196685791,0.10797612369060516,0.6631109714508057
1730998153268122600,33.28912255859375,10.231709480285645,-0.7106683254241943,0.646361231803894
1730998153306060500,33.327060546875,9.364909172058105,0.8620143532752991,0.13908281922340393
1730998153343998700,33.364998779296876,8.206185340881348,-0.1743769496679306,1.4054841995239258
1730998153381936600,33.4029365234375,10.916356086730957,-0.7947162389755249,0.735194742679596
1730998153419874600,33.44087451171875,11.8621187210083,-0.7680960893630981,0.7591229677200317
1730998153457812500,33.4788125,11.105388641357422,-0.6005984544754028,1.189831018447876
1730998153495750400,33.51675048828125,9.101698875427246,-0.13609178364276886,0.6415755748748779
1730998153533688300,33.554688232421874,11.294720649719238,-0.2560320198535919,0.7280163168907166
1730998153571626500,33.59262646484375,10.746465682983398,-1.43389892578125,2.23848557472229
1730998153609564400,33.630564453125,11.222936630249023,-0.6867401003837585,1.572981834411621
1730998153647502300,33.66850244140625,8.76640510559082,0.7447660565376282,0.7806583642959595
1730998153685440300,33.706440185546874,9.702596664428711,0.134297177195549,0.8739784955978394
1730998153723378200,33.744378173828125,10.880463600158691,-0.7704889178276062,0.6080760359764099
1730998153761316400,33.78231640625,11.091032028198242,-1.2326027154922485,0.6032904386520386
1730998153799254300,33.820254150390625,9.465408325195312,0.7423732280731201,0.45254257321357727
1730998153837192200,33.858192138671875,8.744869232177734,0.06251249462366104,1.1180464029312134
1730998153875130000,33.896130126953125,8.749654769897461,0.007477570790797472,0.04785645380616188
1730998153913068300,33.934068359375,9.278767585754395,-0.4043870270252228,0.14865410327911377
1730998153951006200,33.972006103515625,11.100603103637695,-0.6293123364448547,0.4286143481731415
1730998153988944100,34.009944091796875,9.171091079711914,0.0649053156375885,0.5434698462486267
1730998154026882000,34.047882080078125,9.434301376342773,0.30658039450645447,0.38315072655677795
1730998154064820000,34.085820068359375,11.526824951171875,-1.0339984893798828,0.5003990530967712
1730998154102758100,34.123758056640625,9.884450912475586,0.7328019142150879,-0.7229315638542175
1730998154140696000,34.161696044921875,11.976974487304688,-1.0722836256027222,-0.5650052428245544
1730998154178634000,34.199634033203125,9.49202823638916,1.163809061050415,0.5315057039260864
1730998154216572000,34.237572021484375,9.511171340942383,0.768694281578064,-0.17706887423992157
1730998154254509800,34.275509765625,9.0514497756958,0.4169493317604065,0.7423732280731201
1730998154292447700,34.31344775390625,12.790833473205566,0.6562315821647644,-0.30149564146995544
1730998154330385700,34.3513857421875,10.04267692565918,0.26590242981910706,0.04307080805301666
1730998154368323800,34.38932373046875,8.500801086425781,0.735194742679596,-0.4259224236011505
1730998154406261800,34.42726171875,9.362516403198242,-0.17916259169578552,-0.46450668573379517
1730998154444199700,34.46519970703125,12.40558910369873,0.6753742098808289,-0.3326023519039154
1730998154482137600,34.5031376953125,10.480563163757324,0.21804596483707428,0.3927220106124878
1730998154520075500,34.541075439453124,9.977771759033203,-0.4570291340351105,-0.8784649968147278
1730998154558013700,34.579013671875,10.906785011291504,-0.6317051649093628,-0.6655037999153137
1730998154595951600,34.61695166015625,10.279565811157227,-0.7899305820465088,-0.9717850685119629
1730998154633889500,34.6548896484375,11.244471549987793,0.06729813665151596,-0.4692923426628113
1730998154671827500,34.692827392578124,10.634002685546875,-0.2560320198535919,-0.5362913608551025
1730998154709765400,34.730765380859374,9.822237968444824,-0.576670229434967,-0.23449662327766418
1730998154747703600,34.76870361328125,13.016057968139648,-0.6915257573127747,-0.8617152571678162
1730998154785641500,34.806641357421874,9.527920722961426,-0.41156548261642456,-0.8473583459854126
1730998154823579400,34.844579345703124,10.095318794250488,-0.8114659786224365,-0.5865406394004822
1730998154861517300,34.882517333984374,9.223732948303223,-0.9622138142585754,-0.08135596662759781
1730998154899455200,34.920455322265624,11.237293243408203,-0.24885354936122894,-0.8784649968147278
1730998154937393400,34.958393310546874,10.1216402053833,-0.2030908167362213,-1.1802598237991333
1730998154975331300,34.996331298828125,9.867701530456543,-0.30149564146995544,-0.9502496719360352
1730998155013269200,35.034269287109375,11.081460952758789,-0.35413774847984314,-0.6966105103492737
1730998155051207200,35.072207275390625,10.980961799621582,-0.33499518036842346,-1.5439687967300415
1730998155089145000,35.11014501953125,8.199007034301758,0.8955138921737671,-0.26081767678260803
1730998155127083000,35.1480830078125,9.771988868713379,-0.018843477591872215,-0.766002357006073
1730998155165021000,35.18602099609375,10.250852584838867,0.07447660714387894,-0.4812564551830292
1730998155202959000,35.223958984375,10.37767219543457,0.49351966381073,-0.31345975399017334
1730998155240897000,35.26189697265625,9.118449211120605,-0.23688943684101105,-0.10767702013254166
1730998155278835000,35.2998349609375,8.486444473266602,-0.3924229145050049,0.21565313637256622
1730998155316772900,35.33777294921875,10.945070266723633,2.044965982437134,-0.5650052428245544
1730998155354710800,35.37571069335937,11.098210334777832,0.5748756527900696,-1.6974085569381714
1730998155392649000,35.41364892578125,11.787941932678223,-0.4977070987224579,0.23240290582180023
1730998155430587000,35.4515869140625,12.223435401916504,-0.026021946221590042,1.572981834411621
1730998155468524800,35.48952490234375,11.364112854003906,-0.6795616149902344,1.1754741668701172
1730998155506462700,35.52746264648437,12.374482154846191,0.01944168470799923,0.6320042610168457
1730998155544400600,35.56540063476562,9.496813774108887,-0.7561319470405579,0.17736798524856567
1730998155582338600,35.603338623046874,7.028318405151367,0.2922234535217285,-0.09571290761232376
1730998155620276700,35.64127685546875,8.34018325805664,0.5916253924369812,0.17497515678405762
1730998155658214700,35.679214599609374,10.542776107788086,-0.39960137009620667,0.7304090857505798
1730998155696152600,35.717152587890624,11.275578498840332,-0.7995018362998962,0.5985047817230225
1730998155734090500,35.755090576171874,11.244471549987793,-0.3206382393836975,0.04546362906694412
1730998155772028400,35.7930283203125,11.119746208190918,-0.34695929288864136,0.4405784606933594
1730998155809966300,35.83096630859375,9.59492015838623,0.036191441118717194,-0.11006984114646912
1730998155847904300,35.868904296875,8.764012336730957,1.0058828592300415,-0.14117653667926788
1730998155885842400,35.906842529296874,9.829416275024414,-0.10259227454662323,-0.521934449672699
1730998155923780400,35.9447802734375,9.32423210144043,-0.4546363055706024,0.007178467698395252
1730998155961718300,35.98271826171875,9.597312927246094,-0.7322037220001221,0.16301104426383972
1730998155999656200,36.02065625,10.69382381439209,-0.37088751792907715,0.6559324860572815
1730998156037594000,36.05859399414062,9.362516403198242,-0.2150549292564392,-0.12681959569454193
1730998156075532000,36.09653198242187,9.465408325195312,-0.8306085467338562,-0.24167509377002716
1730998156113470200,36.13447021484375,8.80469036102295,-1.6420745849609375,0.9050851464271545
1730998156151408000,36.172408203125,10.241280555725098,0.6729813814163208,0.5075774788856506
1730998156189346000,36.21034594726562,9.913165092468262,0.5030909776687622,0.24915266036987305
1730998156227284000,36.24828393554687,10.461421012878418,0.11515458673238754,-0.4812564551830292
1730998156265222000,36.28622192382812,10.420742988586426,0.37148571014404297,0.031106693670153618
1730998156303159800,36.32415991210937,8.630014419555664,0.46719861030578613,0.031106693670153618
1730998156341098000,36.36209790039062,10.463813781738281,0.07926224917173386,0.5937191247940063
1730998156379036000,36.40003588867187,7.964509963989258,0.005084747914224863,-1.1635099649429321
1730998156416973800,36.43797387695312,10.466206550598145,-0.17676977813243866,-0.5075774788856506
1730998156454911700,36.47591186523437,12.27368450164795,0.6227321028709412,-0.26081767678260803
1730998156492849700,36.513849609375,10.107282638549805,0.6681957244873047,0.6655037999153137
1730998156530787600,36.55178759765625,10.360921859741211,0.6346961855888367,-0.3158525824546814
1730998156568725500,36.5897255859375,10.597811698913574,0.34277185797691345,0.16301104426383972
1730998156606663400,36.62766333007813,11.03599739074707,0.3233301639556885,0.18933209776878357
1730998156644601600,36.6656015625,9.621240615844727,-0.8449655175209045,1.0390832424163818
1730998156682539500,36.70353955078125,10.061819076538086,-0.641276478767395,-0.30628129839897156
1730998156720477400,36.7414775390625,10.739287376403809,-0.672383189201355,-0.47168517112731934
1730998156758415400,36.77941528320312,11.33539867401123,0.17736798524856567,-0.7755736112594604
1730998156796353300,36.81735327148437,9.297910690307617,-0.8377870321273804,-0.44027936458587646
1730998156834291200,36.85529125976562,10.672287940979004,-0.45224347710609436,-0.6200401782989502
1730998156872229400,36.8932294921875,11.165508270263672,0.7878368496894836,0.2946162819862366
1730998156910167300,36.93116723632812,11.062317848205566,0.4624129831790924,0.02871387079358101
1730998156948105200,36.96910522460937,9.894022941589355,0.17258232831954956,0.40707895159721375
1730998156986043100,37.00704321289062,9.963414192199707,-0.550349235534668,-0.9167501926422119
1730998157023981000,37.04498095703125,9.642776489257812,-0.26081767678260803,-0.4860421121120453
1730998157061919000,37.0829189453125,11.04317569732666,-0.33499518036842346,-1.036690354347229
1730998157099857000,37.12085693359375,9.269196510314941,-0.6699903607368469,-0.2799602448940277
1730998157137795000,37.15879516601562,10.265209197998047,-0.5000999569892883,0.0023928226437419653
1730998157175733000,37.19673291015625,10.430314064025879,-1.0028917789459229,-0.24885354936122894
1730998157213671000,37.2346708984375,11.723036766052246,-0.19112670421600342,-0.734895646572113
1730998157251608800,37.27260888671875,10.858928680419922,-0.40677985548973083,-0.701396107673645
1730998157289546800,37.31054663085938,10.6025972366333,-0.39481574296951294,-0.31345975399017334
1730998157327484700,37.34848461914063,10.408778190612793,-0.24885354936122894,-0.6200401782989502
1730998157365422600,37.38642260742188,11.275578498840332,0.6921239495277405,0.9601200819015503
1730998157403360500,37.42436059570313,9.511171340942383,-0.21744775772094727,-0.2919243574142456
1730998157441298400,37.46229833984375,10.578668594360352,-0.14087744057178497,-0.10767702013254166
1730998157479236600,37.50023657226563,9.403194427490234,-0.2392822653055191,-0.6607181429862976
1730998157517174500,37.53817456054688,7.832904815673828,-0.9885348677635193,-0.3613162338733673
1730998157555112400,37.57611254882813,9.477372169494629,0.5700899958610535,0.05024927482008934
1730998157593050400,37.61405029296875,9.472586631774902,0.6514459848403931,0.29700911045074463
1730998157630988300,37.65198828125,12.300304412841797,0.3161516785621643,-0.2679961323738098
1730998157668926200,37.68992626953125,8.050651550292969,0.357128769159317,-0.24167509377002716
1730998157706864000,37.727864013671876,7.65792989730835,-0.10259227454662323,0.3448655605316162
1730998157744802300,37.76580224609375,10.50927734375,0.04815555736422539,-0.7277171611785889
1730998157782740200,37.803740234375,11.780763626098633,-0.15523436665534973,-0.6966105103492737
1730998157820678100,37.84167822265625,10.234102249145508,0.3209373354911804,-0.14117653667926788
1730998157858616000,37.87961596679688,10.7799654006958,-0.31345975399017334,0.4549354016780853
1730998157896554000,37.91755395507813,12.043973922729492,-0.5551348328590393,0.27308088541030884
1730998157934492000,37.95549194335938,11.76162052154541,-0.28235307335853577,-0.0933200865983963
1730998157972429800,37.99342993164063,9.76241683959961,-0.014057832770049572,-0.1459621787071228
1730998158010367700,38.03136767578125,9.094520568847656,0.6777670383453369,0.7639086246490479
1730998158048305700,38.0693056640625,9.257232666015625,0.1295115202665329,0.14865410327911377
1730998158086243600,38.10724365234375,9.84138011932373,-0.8473583459854126,-0.1986042857170105
1730998158124181800,38.145181640625,10.624431610107422,-0.41156548261642456,0.05503492057323456
1730998158162119700,38.18311962890625,9.63081169128418,-0.5551348328590393,0.5506483316421509
1730998158200057600,38.2210576171875,9.386445045471191,-0.6340979933738708,1.0151549577713013
1730998158237995500,38.25899560546875,10.171889305114746,-0.41874396800994873,-0.12921242415905
1730998158275933400,38.296933349609375,9.077771186828613,-0.2512463629245758,0.33529427647590637
1730998158313871400,38.334871337890625,9.786345481872559,-0.4211367964744568,0.6296114325523376
1730998158351809300,38.372809326171875,9.96580696105957,-0.698704183101654,0.6849454641342163
1730998158389747200,38.410747314453126,9.9442720413208,-1.0962119102478027,-0.8425726890563965
1730998158427685400,38.448685302734376,10.837392807006836,-0.05473581701517105,0.4453641176223755
1730998158465623300,38.486623291015626,9.09691333770752,0.45284169912338257,-0.062213387340307236
1730998158503561200,38.524561279296876,9.695418357849121,0.00029910283046774566,1.1084750890731812
1730998158541499100,38.5624990234375,10.030413627624512,-0.23449662327766418,0.579362154006958
1730998158579437000,38.60043701171875,10.375279426574707,-0.30628129839897156,0.9864411354064941
1730998158617375000,38.638375,10.497312545776367,-0.7800601720809937,0.4214358925819397
1730998158655313000,38.67631298828125,10.04985523223877,0.2922234535217285,0.4381856322288513
1730998158693250800,38.714250732421874,10.207781791687012,0.8620143532752991,0.7136593461036682
1730998158731188700,38.752188720703124,10.51645565032959,0.4576273262500763,0.6702894568443298
1730998158769126700,38.790126708984374,8.371588706970215,0.26590242981910706,-0.44027936458587646
1730998158807064600,38.828064697265624,11.411969184875488,-0.14805589616298676,0.4573282301425934
1730998158845002800,38.866002685546874,11.033604621887207,0.4289134442806244,0.8524430394172668
1730998158882940700,38.903940673828124,10.466206550598145,0.31854450702667236,-0.1579262912273407
1730998158920878600,38.941878662109374,9.132805824279785,0.31854450702667236,0.5961119532585144
1730998158958816500,38.97981640625,11.392827033996582,0.7328019142150879,0.48364928364753723
1730998158996754400,39.01775439453125,10.617253303527832,0.29700911045074463,1.0031908750534058
1730998159034692400,39.0556923828125,10.770393371582031,0.1295115202665329,-0.05024927482008934
1730998159072630300,39.09363037109375,10.131211280822754,-0.641276478767395,0.16061821579933167
1730998159110568200,39.13156811523437,9.053842544555664,0.2946162819862366,0.37597227096557617
1730998159148506000,39.16950610351562,10.756036758422852,0.05294119939208031,0.9266205430030823
1730998159186444300,39.2074443359375,10.423135757446289,-0.5718846321105957,-0.8617152571678162
1730998159224382200,39.24538232421875,10.2747802734375,-0.19112670421600342,-0.009571290574967861
1730998159262320000,39.28332006835937,9.355338096618652,-0.05952146276831627,-0.4426721930503845
1730998159300258000,39.32125805664062,9.659525871276855,-0.1624128371477127,-0.31345975399017334
1730998159338196000,39.35919604492187,10.681859016418457,-0.8976075649261475,-0.14117653667926788
1730998159376134000,39.3971337890625,9.977771759033203,0.10079765319824219,-0.6583253145217896
1730998159414071800,39.43507177734375,10.315458297729492,-0.9669994711875916,0.263509601354599
1730998159452009700,39.473009765625,8.472087860107422,0.7328019142150879,-0.5578267574310303
1730998159489947600,39.51094775390625,7.586144924163818,-0.275174617767334,-0.5434698462486267
1730998159527885600,39.54888549804687,8.699405670166016,0.7902296781539917,-0.3517449200153351
1730998159565823500,39.58682348632812,9.563813209533691,-0.797109067440033,0.3161516785621643
1730998159603761400,39.62476147460937,10.549955368041992,-0.24646073579788208,-0.009571290574967861
1730998159641699600,39.66269946289062,10.595418930053711,-0.19351953268051147,-0.8425726890563965
1730998159679637500,39.70063745117187,8.026723861694336,1.0920244455337524,-0.33020952343940735
1730998159717575400,39.73857543945312,7.497610569000244,0.39062830805778503,0.02871387079358101
1730998159755513300,39.77651342773437,9.815059661865234,-0.08584251254796982,-0.7779664397239685
1730998159793451300,39.814451171875,10.487741470336914,0.22522443532943726,-0.43549370765686035
1730998159831389200,39.85238916015625,9.405587196350098,-0.40677985548973083,-0.6008976101875305
1730998159869327000,39.8903271484375,10.222138404846191,0.2802593410015106,0.3281157910823822
1730998159907265000,39.92826513671875,9.652347564697266,0.1055833026766777,-1.0199406147003174
1730998159945203000,39.96620288085938,12.381660461425781,-0.06669992953538895,-0.8066803216934204
1730998159983140900,40.00414086914063,10.545169830322266,-0.03320041298866272,-0.42352959513664246
1730998160021078800,40.04207885742188,8.096115112304688,-0.10019944608211517,0.1821536272764206
1730998160059016700,40.0800166015625,9.666704177856445,0.01704886183142662,-0.24646073579788208
1730998160096954600,40.11795458984375,9.154341697692871,0.31375887989997864,-0.3038884699344635
1730998160134892500,40.155892578125,9.530313491821289,0.026620151475071907,-0.48843491077423096
1730998160172830500,40.19383056640625,9.326624870300293,-0.040378883481025696,-0.16031911969184875
1730998160210768600,40.2317685546875,10.988141059875488,-0.3086741268634796,-0.6056832075119019
1730998160248706600,40.26970654296875,8.778368949890137,-0.2273181527853012,-0.6774678826332092
1730998160286644500,40.30764453125,10.06421184539795,-1.1751750707626343,-0.13639089465141296
1730998160324582400,40.34558251953125,9.539884567260742,-0.02841476909816265,-0.610468864440918
1730998160362520300,40.383520263671876,9.690632820129395,-0.8210372924804688,-0.3206382393836975
1730998160400458200,40.421458251953126,8.79511833190918,-0.5335994362831116,-0.44745782017707825
1730998160438396200,40.459396240234376,9.30030345916748,-0.4426721930503845,-0.2105683982372284
1730998160476334000,40.497333984375,9.783952713012695,-0.8665009140968323,-0.3326023519039154
1730998160514272000,40.53527197265625,9.568598747253418,-0.45224347710609436,-0.2727817893028259
1730998160552210000,40.5732099609375,10.38485050201416,-0.7923234105110168,-0.4139583110809326
1730998160590147800,40.61114794921875,6.025127410888672,1.1662019491195679,-0.9693922996520996
1730998160628085800,40.649085693359375,8.567800521850586,-0.33499518036842346,-0.23688943684101105
1730998160666023700,40.687023681640625,10.147960662841797,-1.4937195777893066,-0.349352091550827
1730998160703961600,40.724961669921875,10.162318229675293,-1.165603756904602,-0.8377870321273804
1730998160741899500,40.7628994140625,10.401599884033203,-1.8526428937911987,-0.8665009140968323
1730998160779837400,40.80083740234375,11.052746772766113,-2.506481647491455,-0.16271193325519562
1730998160817775600,40.838775634765625,10.0040922164917,-1.9127626419067383,-0.27756741642951965
1730998160855713500,40.876713623046875,9.73370361328125,-2.044367790222168,-0.4956133961677551
1730998160893651500,40.9146513671875,9.870094299316406,-2.051546335220337,-0.15553347766399384
1730998160931589400,40.95258935546875,10.04985523223877,-2.1879372596740723,0.09571290761232376
1730998160969527300,40.99052734375,9.903594017028809,-1.9390836954116821,-0.34217363595962524
1730998161007465200,41.02846533203125,8.927022933959961,-1.1009975671768188,-0.5482555031776428
1730998161045403100,41.06640307617187,10.124032974243164,-2.21665096282959,-0.016749758273363113
1730998161083341000,41.10434106445312,10.212567329406738,-2.2764716148376465,-0.5338985323905945
1730998161121279000,41.142279052734374,10.088140487670898,-2.0467605590820312,0.01196411345154047
1730998161159217000,41.180216796875,9.905986785888672,-2.226222276687622,-0.16749759018421173
1730998161197154800,41.21815478515625,9.934700965881348,-1.8837496042251587,-0.2225325107574463
1730998161235092700,41.2560927734375,9.894022941589355,-1.7306089401245117,0.11006984114646912
1730998161273030700,41.29403076171875,9.86530876159668,-1.350150227546692,-0.3038884699344635
1730998161310968600,41.33196850585937,9.977771759033203,-1.2613166570663452,-0.45972105860710144
1730998161348906500,41.36990649414062,9.932307243347168,-0.727418065071106,0.05742774158716202
1730998161386844400,41.40784448242187,9.905986785888672,-0.42831525206565857,-0.05742774158716202
1730998161424782300,41.4457822265625,9.932307243347168,-0.10498509556055069,-0.24406790733337402
1730998161462720300,41.48372021484375,9.882058143615723,0.17258232831954956,0.02153540402650833
1730998161500658200,41.521658203125,9.884450912475586,0.21326032280921936,-0.04307080805301666
1730998161538596000,41.55959619140625,9.898808479309082,0.11515458673238754,-0.04546362906694412
1730998161576534000,41.59753393554688,9.934700965881348,0.0649053156375885,-0.09810572862625122
1730998161614472200,41.63547216796875,9.894022941589355,0.03858426585793495,-0.18903298676013947
1730998161652410000,41.67341015625,9.889236450195312,0.05294119939208031,-0.0023928226437419653
1730998161690348000,41.71134814453125,9.901201248168945,-0.026021946221590042,-0.12203395366668701
1730998161728286000,41.74928588867188,9.88684368133545,-0.05952146276831627,-0.11006984114646912
1730998161766224000,41.78722387695313,9.920343399047852,-0.11216355860233307,-0.059820566326379776
1730998161804161800,41.82516186523438,9.88684368133545,-0.16002000868320465,-0.11964113265275955
1730998161842099700,41.863099609375,9.905986785888672,-0.1743769496679306,-0.06939185410737991
1730998161880037600,41.90103759765625,9.903594017028809,-0.18873389065265656,-0.10289137065410614
1730998161917975600,41.9389755859375,9.901201248168945,-0.19351953268051147,-0.09810572862625122
1730998161955913500,41.97691357421875,9.896415710449219,-0.17676977813243866,-0.08853443711996078
1730998161993851400,42.014851318359376,9.908379554748535,-0.16002000868320465,-0.10049854964017868
1730998162031789300,42.052789306640626,9.898808479309082,-0.14087744057178497,-0.07417750358581543
1730998162069727200,42.09072729492188,9.894022941589355,-0.13609178364276886,-0.08853443711996078
1730998162107665200,42.1286650390625,9.898808479309082,-0.13130614161491394,-0.1052841991186142
1730998162145603000,42.16660302734375,9.898808479309082,-0.12652049958705902,-0.08614161610603333
1730998162183541000,42.204541015625,9.915557861328125,-0.11934202909469604,-0.08614161610603333
1730998162221479000,42.24247900390625,9.908379554748535,-0.13130614161491394,-0.08853443711996078
1730998162259416800,42.280416748046875,9.903594017028809,-0.14327025413513184,-0.0933200865983963
1730998162297354800,42.318354736328125,9.901201248168945,-0.1456630825996399,-0.09092725813388824
1730998162335292700,42.356292724609375,9.898808479309082,-0.133698970079422,-0.0933200865983963
1730998162373230600,42.394230712890625,9.908379554748535,-0.14327025413513184,-0.08614161610603333
1730998162411168500,42.43216845703125,9.903594017028809,-0.14327025413513184,-0.08853443711996078
1730998162449106200,42.47010620117187,9.88684368133545,-0.13848461210727692,-0.08853443711996078
1730998162487044400,42.50804443359375,9.898808479309082,-0.14327025413513184,-0.08853443711996078
1730998162524982300,42.54598217773437,9.896415710449219,-0.13130614161491394,-0.09571290761232376
1730998162562920200,42.58392016601562,9.896415710449219,-0.13609178364276886,-0.08374879509210587
1730998162600858000,42.62185815429687,9.913165092468262,-0.14327025413513184,-0.08853443711996078
1730998162638796000,42.659796142578124,9.898808479309082,-0.14327025413513184,-0.09092725813388824
1730998162676734000,42.69773388671875,9.903594017028809,-0.13848461210727692,-0.09092725813388824
1730998162714671900,42.735671875,9.889236450195312,-0.133698970079422,-0.09571290761232376
1730998162752609800,42.77360986328125,9.898808479309082,-0.14087744057178497,-0.10049854964017868
1730998162790547700,42.81154760742187,9.908379554748535,-0.14087744057178497,-0.0933200865983963
1730998162828485600,42.84948559570312,9.884450912475586,-0.13130614161491394,-0.08614161610603333
1730998162866423600,42.88742358398437,9.894022941589355,-0.14327025413513184,-0.09092725813388824
1730998162904361500,42.92536157226562,9.910772323608398,-0.13609178364276886,-0.08853443711996078
1730998162942299400,42.96329931640625,9.905986785888672,-0.14327025413513184,-0.09571290761232376
1730998162980237300,43.0012373046875,9.903594017028809,-0.14805589616298676,-0.08614161610603333
1730998163018175200,43.03917529296875,9.898808479309082,-0.13848461210727692,-0.09571290761232376
1730998163056113200,43.07711303710938,9.891630172729492,-0.14327025413513184,-0.09571290761232376
1730998163094051000,43.11505102539063,9.898808479309082,-0.14087744057178497,-0.08853443711996078
1730998163131989000,43.15298901367188,9.898808479309082,-0.13130614161491394,-0.09810572862625122
1730998163169927000,43.19092700195313,9.896415710449219,-0.12891331315040588,-0.09810572862625122
1730998163207864800,43.22886474609375,9.905986785888672,-0.13848461210727692,-0.07896314561367035
1730998163245802800,43.266802734375,9.898808479309082,-0.13609178364276886,-0.08614161610603333
1730998163283740700,43.30474072265625,9.913165092468262,-0.12891331315040588,-0.0526420995593071
1730998163321678600,43.3426787109375,9.896415710449219,-0.18155542016029358,-0.2225325107574463
1730998163359616500,43.380616455078126,9.896415710449219,-0.133698970079422,0.016749758273363113
1730998163397554400,43.418554443359376,9.898808479309082,-0.14327025413513184,-0.13878370821475983
1730998163435492400,43.456492431640626,9.898808479309082,-0.14805589616298676,-0.07417750358581543
1730998163473430300,43.49443017578125,9.908379554748535,-0.14087744057178497,-0.10289137065410614
1730998163511368200,43.5323681640625,9.903594017028809,-0.14327025413513184,-0.10767702013254166
1730998163549305900,43.570305908203125,9.894022941589355,-0.14327025413513184,-0.08614161610603333
1730998163587244000,43.608244140625,9.905986785888672,-0.13130614161491394,-0.1052841991186142
1730998163625182000,43.646181884765625,9.891630172729492,-0.14805589616298676,-0.08374879509210587
1730998163663120000,43.684119873046875,9.898808479309082,-0.1504487246274948,-0.10767702013254166
1730998163701057800,43.722057861328125,9.905986785888672,-0.13848461210727692,-0.08374879509210587
1730998163738995700,43.75999560546875,9.905986785888672,-0.14805589616298676,-0.10049854964017868
1730998163776933600,43.79793359375,9.894022941589355,-0.14327025413513184,-0.09571290761232376
1730998163814871600,43.83587158203125,9.884450912475586,-0.13848461210727692,-0.10767702013254166
1730998163852809500,43.8738095703125,9.905986785888672,-0.14805589616298676,-0.08374879509210587
1730998163890747400,43.91174731445312,9.894022941589355,-0.133698970079422,-0.1052841991186142
1730998163928685300,43.94968530273437,9.908379554748535,-0.14327025413513184,-0.09571290761232376
1730998163966623200,43.98762329101562,9.903594017028809,-0.133698970079422,-0.09092725813388824
1730998164004561200,44.02556103515625,9.894022941589355,-0.1456630825996399,-0.09092725813388824
1730998164042499000,44.0634990234375,9.903594017028809,-0.14805589616298676,-0.08853443711996078
1730998164080437000,44.10143701171875,9.898808479309082,-0.1504487246274948,-0.0933200865983963
1730998164118375000,44.139375,9.898808479309082,-0.133698970079422,-0.09092725813388824
1730998164156312800,44.17731274414062,9.891630172729492,-0.15284155309200287,-0.0933200865983963
1730998164194250800,44.21525073242187,9.915557861328125,-0.1456630825996399,-0.09092725813388824
1730998164232188700,44.25318872070312,9.903594017028809,-0.15284155309200287,-0.09092725813388824
1730998164270126600,44.29112670898437,9.905986785888672,-0.13848461210727692,-0.09810572862625122
1730998164308064500,44.329064453125,9.905986785888672,-0.14087744057178497,-0.10049854964017868
1730998164346002200,44.36700219726563,9.903594017028809,-0.1456630825996399,-0.0933200865983963
1730998164383940000,44.40494018554688,9.901201248168945,-0.1456630825996399,-0.10049854964017868
1730998164421878000,44.4428779296875,9.896415710449219,-0.14805589616298676,-0.10049854964017868
1730998164459816000,44.48081591796875,9.903594017028809,-0.14327025413513184,-0.09810572862625122
1730998164497753900,44.51875390625,9.884450912475586,-0.14087744057178497,-0.07417750358581543
1730998164535691800,44.55669189453125,9.922736167907715,-0.13848461210727692,-0.08135596662759781
1730998164573629700,44.594629638671876,9.901201248168945,-0.14087744057178497,-0.09092725813388824
1730998164611567600,44.632567626953126,9.894022941589355,-0.1456630825996399,-0.09571290761232376
1730998164649505500,44.670505615234376,9.905986785888672,-0.14327025413513184,-0.08614161610603333
1730998164687443500,44.708443359375,9.908379554748535,-0.1456630825996399,-0.0933200865983963
1730998164725381400,44.74638134765625,9.88684368133545,-0.1504487246274948,-0.09571290761232376
1730998164763319300,44.7843193359375,9.903594017028809,-0.13609178364276886,-0.0933200865983963
1730998164801257200,44.82225732421875,9.898808479309082,-0.133698970079422,-0.09571290761232376
1730998164839195100,44.860195068359374,9.905986785888672,-0.13609178364276886,-0.09092725813388824
1730998164877133000,44.898133056640624,9.903594017028809,-0.15523436665534973,-0.08853443711996078
1730998164915071000,44.936071044921874,9.896415710449219,-0.14327025413513184,-0.09571290761232376
1730998164953009000,44.9740087890625,9.915557861328125,-0.14087744057178497,-0.09092725813388824
1730998164990946800,45.01194677734375,9.88684368133545,-0.13848461210727692,-0.0933200865983963
1730998165028884700,45.049884765625,9.915557861328125,-0.14087744057178497,-0.09092725813388824
1730998165066822700,45.08782275390625,9.889236450195312,-0.13609178364276886,-0.0933200865983963
1730998165104760600,45.12576049804687,9.920343399047852,-0.13609178364276886,-0.08853443711996078
1730998165142698500,45.16369848632812,9.884450912475586,-0.14087744057178497,-0.0933200865983963
1730998165180636400,45.20163647460937,9.898808479309082,-0.13130614161491394,-0.10049854964017868
1730998165218574300,45.23957421875,9.905986785888672,-0.13609178364276886,-0.0933200865983963
1730998165256512300,45.27751220703125,9.903594017028809,-0.13609178364276886,-0.09092725813388824
1730998165294450200,45.3154501953125,9.908379554748535,-0.1456630825996399,-0.07417750358581543
1730998165332387800,45.35338793945313,9.884450912475586,-0.13848461210727692,-0.10289137065410614
1730998165370325800,45.39132568359375,9.915557861328125,-0.14805589616298676,-0.0933200865983963
1730998165408263700,45.429263671875,9.905986785888672,-0.13848461210727692,-0.09092725813388824
1730998165446201600,45.46720166015625,9.894022941589355,-0.13609178364276886,-0.0933200865983963
1730998165484139500,45.50513940429688,9.891630172729492,-0.13609178364276886,-0.08853443711996078
1730998165522077400,45.54307739257813,9.903594017028809,-0.14087744057178497,-0.10289137065410614
1730998165560015400,45.58101538085938,9.913165092468262,-0.14805589616298676,-0.08853443711996078
1730998165597953300,45.61895336914063,9.894022941589355,-0.133698970079422,-0.08614161610603333
1730998165635891200,45.65689111328125,9.894022941589355,-0.1504487246274948,-0.0933200865983963
1730998165673829000,45.6948291015625,9.903594017028809,-0.14327025413513184,-0.09092725813388824
1730998165711767000,45.73276708984375,9.903594017028809,-0.1456630825996399,-0.09810572862625122
1730998165749705000,45.770705078125,9.901201248168945,-0.14805589616298676,-0.07896314561367035
1730998165787643000,45.808642822265625,9.889236450195312,-0.15284155309200287,-0.09810572862625122
1730998165825580800,45.846580810546875,9.903594017028809,-0.13848461210727692,-0.11006984114646912
1730998165863518700,45.884518798828125,9.898808479309082,-0.133698970079422,-0.09571290761232376
1730998165901456400,45.92245629882812,9.908379554748535,-0.133698970079422,-0.09092725813388824
1730998165939394300,45.960394287109374,9.877272605895996,-0.14805589616298676,-0.11246266216039658
1730998165977332200,45.998332275390624,9.927521705627441,-0.13848461210727692,-0.0933200865983963
1730998166015270100,46.036270263671874,9.898808479309082,-0.133698970079422,-0.10049854964017868
1730998166053208000,46.0742080078125,9.901201248168945,-0.13848461210727692,-0.0933200865983963
1730998166091146000,46.11214599609375,9.896415710449219,-0.13848461210727692,-0.08853443711996078
1730998166129084000,46.150083984375,9.88684368133545,-0.14087744057178497,-0.08614161610603333
1730998166167021800,46.18802172851562,9.908379554748535,-0.1456630825996399,-0.08374879509210587
1730998166204959700,46.22595971679687,9.898808479309082,-0.14805589616298676,-0.11485548317432404
1730998166242897700,46.26389770507812,9.901201248168945,-0.13609178364276886,-0.08614161610603333
1730998166280835600,46.30183569335937,9.905986785888672,-0.1456630825996399,-0.08614161610603333
1730998166318773500,46.3397734375,9.903594017028809,-0.1456630825996399,-0.10049854964017868
1730998166356711400,46.37771142578125,9.891630172729492,-0.13609178364276886,-0.09571290761232376
1730998166394649000,46.41564916992188,9.903594017028809,-0.14327025413513184,-0.10049854964017868
1730998166432587000,46.4535869140625,9.891630172729492,-0.13130614161491394,-0.0933200865983963
1730998166470525000,46.49152490234375,10.813464164733887,-0.2512463629245758,-0.11964113265275955
1730998166508462800,46.529462890625,9.903594017028809,-0.09780662506818771,-0.11485548317432404
1730998166546400800,46.56740087890625,9.896415710449219,-0.10259227454662323,-0.09571290761232376
