time,seconds_elapsed,z,y,x
1729114176111109000,0.081109130859375,9.786345481872559,-0.08584251254796982,-0.11485548317432404
1729114176149041700,0.119041748046875,9.968199729919434,-0.11455638706684113,-0.11485548317432404
1729114176186976300,0.156976318359375,9.819845199584961,-0.07866404205560684,-0.13878370821475983
1729114176224911000,0.1949111328125,9.915557861328125,-0.08584251254796982,-0.10767702013254166
1729114176262845700,0.232845703125,9.838987350463867,-0.09062815457582474,-0.12921242415905
1729114176300780500,0.270780517578125,9.898808479309082,-0.10498509556055069,-0.12681959569454193
1729114176338715100,0.308715087890625,9.853344917297363,-0.09780662506818771,-0.13160525262355804
1729114176376650000,0.34664990234375,9.920343399047852,-0.09062815457582474,-0.13160525262355804
1729114176414584600,0.38458447265625,9.877272605895996,-0.09062815457582474,-0.12203395366668701
1729114176452519400,0.42251953125,9.917950630187988,-0.10737791657447815,-0.13639089465141296
1729114176490454000,0.4604541015625,9.896415710449219,-0.09780662506818771,-0.13639089465141296
1729114176528388900,0.498388916015625,9.882058143615723,-0.09780662506818771,-0.13878370821475983
1729114176566323500,0.536323486328125,9.874879837036133,-0.09062815457582474,-0.11724831163883209
1729114176604258300,0.57425830078125,9.896415710449219,-0.10737791657447815,-0.14835500717163086
1729114176642193200,0.612193115234375,9.877272605895996,-0.09780662506818771,-0.11964113265275955
1729114176680127700,0.650127685546875,9.891630172729492,-0.09541380405426025,-0.1339980661869049
1729114176718062600,0.6880625,9.889236450195312,-0.09541380405426025,-0.11724831163883209
1729114176755997200,0.7259970703125,9.905986785888672,-0.0930209830403328,-0.1339980661869049
1729114176793932000,0.76393212890625,9.87966537475586,-0.10259227454662323,-0.12921242415905
1729114176831866600,0.80186669921875,9.87966537475586,-0.08823533356189728,-0.11485548317432404
1729114176869801500,0.839801513671875,9.891630172729492,-0.09780662506818771,-0.12203395366668701
1729114176907736300,0.877736328125,9.88684368133545,-0.09541380405426025,-0.12681959569454193
1729114176945671000,0.9156708984375,9.884450912475586,-0.09780662506818771,-0.12681959569454193
1729114176983605800,0.953605712890625,9.896415710449219,-0.10019944608211517,-0.12203395366668701
1729114177021540600,0.99154052734375,9.882058143615723,-0.0930209830403328,-0.13160525262355804
1729114177059475200,1.02947509765625,9.88684368133545,-0.09541380405426025,-0.12681959569454193
1729114177097410000,1.06741015625,9.889236450195312,-0.09541380405426025,-0.12681959569454193
1729114177135344600,1.1053447265625,9.901201248168945,-0.09780662506818771,-0.11724831163883209
1729114177173279500,1.143279541015625,9.884450912475586,-0.11216355860233307,-0.1339980661869049
1729114177211214300,1.18121435546875,9.896415710449219,-0.10259227454662323,-0.12921242415905
1729114177249149000,1.21914892578125,9.87966537475586,-0.09541380405426025,-0.13639089465141296
1729114177287083800,1.257083740234375,9.891630172729492,-0.09780662506818771,-0.13160525262355804
1729114177325018600,1.2950185546875,9.896415710449219,-0.09541380405426025,-0.12442677468061447
1729114177362953200,1.332953125,9.889236450195312,-0.0930209830403328,-0.12203395366668701
1729114177400888000,1.37088818359375,9.87966537475586,-0.09062815457582474,-0.14117653667926788
1729114177438822700,1.40882275390625,9.908379554748535,-0.10019944608211517,-0.12442677468061447
1729114177476757500,1.446757568359375,9.884450912475586,-0.09541380405426025,-0.12442677468061447
1729114177514692400,1.4846923828125,9.896415710449219,-0.10977073758840561,-0.12921242415905
1729114177552627000,1.522626953125,9.896415710449219,-0.09541380405426025,-0.13639089465141296
1729114177590561800,1.560561767578125,9.910772323608398,-0.10498509556055069,-0.11964113265275955
1729114177628496600,1.59849658203125,9.882058143615723,-0.10498509556055069,-0.12921242415905
1729114177666431200,1.63643115234375,9.88684368133545,-0.0930209830403328,-0.13160525262355804
1729114177704366000,1.674365966796875,9.894022941589355,-0.09780662506818771,-0.12442677468061447
1729114177742301000,1.712301025390625,9.898808479309082,-0.10977073758840561,-0.14117653667926788
1729114177780235500,1.750235595703125,9.889236450195312,-0.10498509556055069,-0.14356936514377594
1729114177818170400,1.78817041015625,9.896415710449219,-0.10977073758840561,-0.12681959569454193
1729114177856105200,1.826105224609375,9.894022941589355,-0.0930209830403328,-0.13878370821475983
1729114177894039800,1.864039794921875,9.894022941589355,-0.10977073758840561,-0.12921242415905
1729114177931974700,1.901974609375,9.882058143615723,-0.09780662506818771,-0.12921242415905
1729114177969909500,1.939909423828125,9.901201248168945,-0.09541380405426025,-0.10767702013254166
1729114178007844000,1.977843994140625,9.884450912475586,-0.08823533356189728,-0.1339980661869049
1729114178045779000,2.015779052734375,9.898808479309082,-0.08344969153404236,-0.12203395366668701
1729114178083713800,2.0537138671875,9.889236450195312,-0.10259227454662323,-0.13160525262355804
1729114178121648400,2.0916484375,9.884450912475586,-0.10019944608211517,-0.11964113265275955
1729114178159583200,2.129583251953125,9.896415710449219,-0.09780662506818771,-0.13639089465141296
1729114178197517800,2.167517822265625,9.88684368133545,-0.08823533356189728,-0.11246266216039658
1729114178235452700,2.20545263671875,9.908379554748535,-0.09780662506818771,-0.13639089465141296
1729114178273387500,2.243387451171875,9.889236450195312,-0.10498509556055069,-0.12921242415905
1729114178311322000,2.281322021484375,9.903594017028809,-0.0930209830403328,-0.12921242415905
1729114178349257000,2.319257080078125,9.905986785888672,-0.09780662506818771,-0.12203395366668701
1729114178387191800,2.35719189453125,9.88684368133545,-0.07866404205560684,-0.14117653667926788
1729114178425126400,2.39512646484375,9.896415710449219,-0.10019944608211517,-0.12442677468061447
1729114178463061200,2.433061279296875,9.88684368133545,-0.09780662506818771,-0.1339980661869049
1729114178500996000,2.47099609375,9.908379554748535,-0.10737791657447815,-0.13878370821475983
1729114178538930700,2.5089306640625,9.882058143615723,-0.10498509556055069,-0.1339980661869049
1729114178576865500,2.546865478515625,9.908379554748535,-0.10259227454662323,-0.12681959569454193
1729114178614800400,2.58480029296875,9.884450912475586,-0.10498509556055069,-0.12442677468061447
1729114178652735000,2.62273486328125,9.901201248168945,-0.10019944608211517,-0.14117653667926788
1729114178690669800,2.660669921875,9.889236450195312,-0.10019944608211517,-0.12442677468061447
1729114178728604700,2.698604736328125,9.898808479309082,-0.09062815457582474,-0.12681959569454193
1729114178766539300,2.736539306640625,9.896415710449219,-0.09780662506818771,-0.1339980661869049
1729114178804474000,2.77447412109375,9.874879837036133,-0.10259227454662323,-0.12442677468061447
1729114178842409000,2.812408935546875,9.901201248168945,-0.09780662506818771,-0.12921242415905
1729114178880343600,2.850343505859375,9.896415710449219,-0.09541380405426025,-0.12442677468061447
1729114178918278400,2.8882783203125,9.898808479309082,-0.10259227454662323,-0.12921242415905
1729114178956213200,2.926213134765625,9.898808479309082,-0.08823533356189728,-0.13160525262355804
1729114178994147800,2.96414794921875,9.891630172729492,-0.10259227454662323,-0.12921242415905
1729114179032082700,3.002082763671875,9.894022941589355,-0.0930209830403328,-0.13878370821475983
1729114179070017500,3.040017578125,9.894022941589355,-0.0930209830403328,-0.11724831163883209
1729114179107952000,3.0779521484375,9.901201248168945,-0.10737791657447815,-0.12442677468061447
1729114179145887000,3.115886962890625,9.889236450195312,-0.10019944608211517,-0.1339980661869049
1729114179183821600,3.153821533203125,9.901201248168945,-0.10259227454662323,-0.11964113265275955
1729114179221756400,3.19175634765625,9.894022941589355,-0.0930209830403328,-0.12203395366668701
1729114179259691300,3.229691162109375,9.882058143615723,-0.09541380405426025,-0.12203395366668701
1729114179297625900,3.2676259765625,9.896415710449219,-0.10259227454662323,-0.13639089465141296
1729114179335560700,3.305560791015625,9.908379554748535,-0.10019944608211517,-0.13160525262355804
1729114179373495600,3.34349560546875,9.874879837036133,-0.10019944608211517,-0.1339980661869049
1729114179411430100,3.38143017578125,9.903594017028809,-0.08823533356189728,-0.11485548317432404
1729114179449365000,3.419364990234375,9.898808479309082,-0.09780662506818771,-0.12921242415905
1729114179487299800,3.4572998046875,9.903594017028809,-0.0930209830403328,-0.13160525262355804
1729114179525234400,3.495234375,9.889236450195312,-0.09062815457582474,-0.12921242415905
1729114179563169300,3.533169189453125,9.889236450195312,-0.09780662506818771,-0.12442677468061447
1729114179601104100,3.571104248046875,9.894022941589355,-0.10259227454662323,-0.13639089465141296
1729114179639038700,3.609038818359375,9.894022941589355,-0.09541380405426025,-0.11964113265275955
1729114179676973600,3.6469736328125,9.901201248168945,-0.10259227454662323,-0.11964113265275955
1729114179714908400,3.684908447265625,9.896415710449219,-0.10259227454662323,-0.13639089465141296
1729114179752843000,3.722843017578125,9.898808479309082,-0.09541380405426025,-0.11964113265275955
1729114179790777900,3.76077783203125,9.894022941589355,-0.0810568705201149,-0.11964113265275955
1729114179828712400,3.79871240234375,9.889236450195312,-0.0930209830403328,-0.11246266216039658
1729114179866647300,3.836647216796875,9.891630172729492,-0.10977073758840561,-0.12681959569454193
1729114179904582100,3.87458203125,9.910772323608398,-0.09780662506818771,-0.12921242415905
1729114179942516700,3.912516845703125,9.905986785888672,-0.09541380405426025,-0.12681959569454193
1729114179980451600,3.95045166015625,9.87966537475586,-0.08584251254796982,-0.11246266216039658
1729114180018386400,3.988386474609375,9.910772323608398,-0.09541380405426025,-0.12442677468061447
1729114180056321000,4.026321044921875,9.889236450195312,-0.10019944608211517,-0.13160525262355804
1729114180094255900,4.064255859375,9.894022941589355,-0.10019944608211517,-0.12921242415905
1729114180132190700,4.102190673828125,9.891630172729492,-0.09062815457582474,-0.12921242415905
1729114180170125300,4.140125244140625,9.908379554748535,-0.09780662506818771,-0.12921242415905
1729114180208060200,4.17806005859375,9.896415710449219,-0.09541380405426025,-0.11964113265275955
1729114180245995000,4.2159951171875,9.894022941589355,-0.10737791657447815,-0.12681959569454193
1729114180283929600,4.2539296875,9.901201248168945,-0.09780662506818771,-0.13160525262355804
1729114180321864400,4.291864501953125,9.901201248168945,-0.10019944608211517,-0.12681959569454193
1729114180359799300,4.32979931640625,9.889236450195312,-0.0930209830403328,-0.12681959569454193
1729114180397734000,4.36773388671875,9.901201248168945,-0.09062815457582474,-0.11964113265275955
1729114180435668700,4.405668701171875,9.910772323608398,-0.09062815457582474,-0.13878370821475983
1729114180473603600,4.443603515625,9.88684368133545,-0.10259227454662323,-0.12203395366668701
1729114180511538200,4.4815380859375,9.908379554748535,-0.09062815457582474,-0.12681959569454193
1729114180549473000,4.51947314453125,9.889236450195312,-0.10498509556055069,-0.12921242415905
1729114180587407600,4.55740771484375,9.898808479309082,-0.10259227454662323,-0.13639089465141296
1729114180625342500,4.595342529296875,9.894022941589355,-0.10259227454662323,-0.12921242415905
1729114180663277300,4.63327734375,9.898808479309082,-0.10737791657447815,-0.13639089465141296
1729114180701212000,4.6712119140625,9.894022941589355,-0.08823533356189728,-0.12442677468061447
1729114180739146800,4.709146728515625,9.896415710449219,-0.10259227454662323,-0.12921242415905
1729114180777081600,4.74708154296875,9.898808479309082,-0.10019944608211517,-0.13878370821475983
1729114180815016200,4.78501611328125,9.889236450195312,-0.08584251254796982,-0.13160525262355804
1729114180852951000,4.822950927734375,9.889236450195312,-0.09541380405426025,-0.12442677468061447
1729114180890885600,4.8608857421875,9.882058143615723,-0.08823533356189728,-0.12921242415905
1729114180928820500,4.898820556640625,9.901201248168945,-0.09780662506818771,-0.1339980661869049
1729114180966755300,4.93675537109375,9.889236450195312,-0.09541380405426025,-0.1339980661869049
1729114181004690000,4.97468994140625,9.889236450195312,-0.11216355860233307,-0.13160525262355804
1729114181042624800,5.012624755859375,9.88684368133545,-0.0930209830403328,-0.12442677468061447
1729114181080559600,5.0505595703125,9.905986785888672,-0.10019944608211517,-0.13160525262355804
1729114181118494200,5.088494140625,9.88684368133545,-0.0930209830403328,-0.13160525262355804
1729114181156429000,5.126428955078125,9.903594017028809,-0.0930209830403328,-0.11964113265275955
1729114181194363600,5.16436376953125,9.891630172729492,-0.09541380405426025,-0.12442677468061447
1729114181232298500,5.202298583984375,9.88684368133545,-0.09780662506818771,-0.12442677468061447
1729114181270233300,5.2402333984375,9.896415710449219,-0.09062815457582474,-0.11006984114646912
1729114181308168000,5.27816796875,9.889236450195312,-0.10737791657447815,-0.1339980661869049
1729114181346102800,5.316102783203125,9.891630172729492,-0.09062815457582474,-0.11964113265275955
1729114181384037600,5.35403759765625,9.908379554748535,-0.10019944608211517,-0.11724831163883209
1729114181421972200,5.39197216796875,9.88684368133545,-0.09062815457582474,-0.13160525262355804
1729114181459907000,5.429906982421875,9.901201248168945,-0.09541380405426025,-0.13639089465141296
1729114181497841700,5.467841552734375,9.898808479309082,-0.09780662506818771,-0.12442677468061447
1729114181535776500,5.505776611328125,9.908379554748535,-0.10737791657447815,-0.13639089465141296
1729114181573711400,5.54371142578125,9.882058143615723,-0.10259227454662323,-0.13878370821475983
1729114181611646000,5.58164599609375,9.894022941589355,-0.0930209830403328,-0.12681959569454193
1729114181649580800,5.619580810546875,9.891630172729492,-0.10019944608211517,-0.14117653667926788
1729114181687515600,5.657515625,9.896415710449219,-0.09541380405426025,-0.12203395366668701
1729114181725450200,5.6954501953125,9.88684368133545,-0.09780662506818771,-0.13160525262355804
1729114181763385000,5.733385009765625,9.905986785888672,-0.10977073758840561,-0.12203395366668701
1729114181801320000,5.77131982421875,9.896415710449219,-0.0930209830403328,-0.12442677468061447
1729114181839254500,5.809254638671875,9.88684368133545,-0.10498509556055069,-0.13639089465141296
1729114181877189400,5.847189453125,9.901201248168945,-0.09780662506818771,-0.12681959569454193
1729114181915124000,5.8851240234375,9.891630172729492,-0.09780662506818771,-0.11724831163883209
1729114181953058800,5.923058837890625,9.894022941589355,-0.0930209830403328,-0.12681959569454193
1729114181990993700,5.96099365234375,9.891630172729492,-0.09062815457582474,-0.1339980661869049
1729114182028928300,5.99892822265625,9.903594017028809,-0.09780662506818771,-0.12442677468061447
1729114182066863000,6.036863037109375,9.884450912475586,-0.09541380405426025,-0.1339980661869049
1729114182104798000,6.0747978515625,9.901201248168945,-0.09780662506818771,-0.11964113265275955
1729114182142732500,6.112732666015625,9.889236450195312,-0.10019944608211517,-0.14117653667926788
1729114182180667400,6.15066748046875,9.901201248168945,-0.09780662506818771,-0.12442677468061447
1729114182218602000,6.18860205078125,9.894022941589355,-0.08584251254796982,-0.12681959569454193
1729114182256536800,6.226536865234375,9.903594017028809,-0.10977073758840561,-0.12203395366668701
1729114182294471700,6.2644716796875,9.894022941589355,-0.09541380405426025,-0.12681959569454193
1729114182332406300,6.30240625,9.905986785888672,-0.09062815457582474,-0.11964113265275955
1729114182370341000,6.340341064453125,9.901201248168945,-0.10259227454662323,-0.12681959569454193
1729114182408276000,6.37827587890625,9.882058143615723,-0.09780662506818771,-0.1339980661869049
1729114182446210600,6.41621044921875,9.908379554748535,-0.0930209830403328,-0.12442677468061447
1729114182484145400,6.4541455078125,9.891630172729492,-0.10259227454662323,-0.1339980661869049
1729114182522080000,6.492080078125,9.903594017028809,-0.09541380405426025,-0.13160525262355804
1729114182560014800,6.530014892578125,9.901201248168945,-0.09541380405426025,-0.13160525262355804
1729114182597949700,6.56794970703125,9.894022941589355,-0.09541380405426025,-0.12681959569454193
1729114182635884300,6.60588427734375,9.901201248168945,-0.09541380405426025,-0.1339980661869049
1729114182673819100,6.643819091796875,9.88684368133545,-0.0930209830403328,-0.12681959569454193
1729114182711754000,6.68175390625,9.901201248168945,-0.09541380405426025,-0.13160525262355804
1729114182749688600,6.7196884765625,9.884450912475586,-0.09780662506818771,-0.12921242415905
1729114182787623400,6.75762353515625,9.894022941589355,-0.09780662506818771,-0.12442677468061447
1729114182825558000,6.79555810546875,9.88684368133545,-0.10019944608211517,-0.11964113265275955
1729114182863492900,6.833492919921875,9.901201248168945,-0.11455638706684113,-0.12203395366668701
1729114182901427700,6.871427734375,9.901201248168945,-0.10259227454662323,-0.14835500717163086
1729114182939362300,6.9093623046875,9.891630172729492,-0.09062815457582474,-0.11964113265275955
1729114182977297200,6.947297119140625,9.894022941589355,-0.10019944608211517,-0.13160525262355804
1729114183015231700,6.985231689453125,10.028020858764648,-0.08344969153404236,-0.17228323221206665
1729114183053166600,7.02316650390625,9.8509521484375,0.3858426511287689,-0.16749759018421173
1729114183091101400,7.061101318359375,9.922736167907715,0.7160521745681763,-0.059820566326379776
1729114183129036000,7.0990361328125,9.87248706817627,0.9317052960395813,-0.031106693670153618
1729114183166971000,7.136970947265625,9.941879272460938,1.1063814163208008,0.016749758273363113
1729114183204905500,7.174905517578125,9.961021423339844,1.1757732629776,-0.14356936514377594
1729114183242840300,7.21284033203125,10.12881851196289,1.1183454990386963,-0.13639089465141296
1729114183280775200,7.250775146484375,9.51595687866211,1.2954143285751343,-0.07896314561367035
1729114183318709800,7.288709716796875,10.114460945129395,1.1805589199066162,0.004785645287483931
1729114183356644600,7.32664453125,9.537491798400879,1.2164511680603027,-0.2560320198535919
1729114183394579500,7.364579345703125,9.882058143615723,1.4557334184646606,-0.009571290574967861
1729114183432514000,7.40251416015625,9.49920654296875,1.8747764825820923,-0.17946170270442963
1729114183470449000,7.440448974609375,10.212567329406738,1.3863415718078613,-0.31106695532798767
1729114183508383500,7.478383544921875,10.909177780151367,1.5804593563079834,-0.09810572862625122
1729114183546318300,7.516318359375,9.932307243347168,2.1000008583068848,0.30658039450645447
1729114183584253200,7.554253173828125,7.835297584533691,1.5397813320159912,-0.15553347766399384
1729114183622187800,7.592187744140625,9.736096382141113,0.6275177597999573,-0.7372884750366211
1729114183660122600,7.63012255859375,8.026723861694336,0.8739784955978394,-0.521934449672699
1729114183698057200,7.66805712890625,10.791929244995117,0.06251249462366104,-0.2919243574142456
1729114183735992000,7.705991943359375,5.402694225311279,1.1781660318374634,-0.5147559642791748
1729114183773927000,7.743927001953125,9.422337532043457,-0.7226324677467346,0.4549354016780853
1729114183811861500,7.781861572265625,9.776774406433105,0.706480860710144,0.019142581149935722
1729114183849796400,7.81979638671875,10.234102249145508,0.5198407173156738,-0.9981061220169067
1729114183887731000,7.85773095703125,10.90439224243164,0.39541393518447876,0.2874378263950348
1729114183925665800,7.895665771484375,9.934700965881348,0.4289134442806244,-0.275174617767334
1729114183963600600,7.9336005859375,10.583454132080078,-0.08584251254796982,0.4501497745513916
1729114184001535200,7.97153515625,7.693821907043457,0.9771689176559448,-0.019142581149935722
1729114184039470000,8.009469970703124,9.95862865447998,-0.25363919138908386,0.42382872104644775
1729114184077405000,8.047405029296876,12.925130844116211,-1.6516457796096802,-0.48364928364753723
1729114184115339500,8.085339599609375,8.318648338317871,-0.13848461210727692,0.22043879330158234
1729114184153274400,8.1232744140625,10.921141624450684,0.15104693174362183,-0.10289137065410614
1729114184191209000,8.161208984375,10.617253303527832,-0.30628129839897156,0.04546362906694412
1729114184229143800,8.199143798828125,11.486146926879883,-0.17916259169578552,-0.14835500717163086
1729114184267078700,8.23707861328125,7.2798638343811035,0.37148571014404297,-1.098903775215149
1729114184305013200,8.27501318359375,9.779167175292969,-0.3278166949748993,-0.6320042610168457
1729114184342948000,8.312947998046875,9.671489715576172,-0.10498509556055069,-0.14356936514377594
1729114184380882700,8.350882568359374,9.779167175292969,0.6131607890129089,-0.0023928226437419653
1729114184418817500,8.388817626953125,8.096115112304688,0.30179476737976074,-0.2225325107574463
1729114184456752400,8.42675244140625,16.128223419189453,-0.2727817893028259,0.6272186636924744
1729114184494687000,8.46468701171875,9.020342826843262,0.7639086246490479,-0.016749758273363113
1729114184532621800,8.502621826171875,11.943474769592285,-0.10498509556055069,0.02392822690308094
1729114184570556400,8.540556396484375,10.696216583251953,-0.349352091550827,-0.1986042857170105
1729114184608491300,8.5784912109375,5.13948392868042,1.4174482822418213,-0.6152545213699341
1729114184646426000,8.616426025390625,11.158031463623047,0.13908281922340393,0.040677983313798904
1729114184684360700,8.654360595703125,11.067103385925293,0.3209373354911804,0.11006984114646912
1729114184722295600,8.692295654296874,9.381659507751465,0.1462612897157669,-0.8449655175209045
1729114184760230100,8.730230224609375,11.440683364868164,-0.03080759197473526,0.30658039450645447
1729114184798165000,8.7681650390625,7.767999649047852,0.20608185231685638,-0.07896314561367035
1729114184836099800,8.806099853515626,14.071890830993652,-0.39481574296951294,0.4668995141983032
1729114184874034400,8.844034423828125,10.061819076538086,0.8476574420928955,-0.13160525262355804
1729114184911969300,8.88196923828125,12.01765251159668,0.3403790295124054,-0.10767702013254166
1729114184949904000,8.91990380859375,6.860820770263672,0.5174478888511658,-0.38285163044929504
1729114184987838700,8.957838623046875,13.29841136932373,0.22761724889278412,-0.20099709928035736
1729114185025773600,8.995773681640625,6.195316791534424,-0.04995017126202583,-0.7037889361381531
1729114185063708200,9.033708251953126,9.427123069763184,-0.04995017126202583,-0.39960137009620667
1729114185101643000,9.07164306640625,10.104889869689941,-0.4737788736820221,0.014356935396790504
1729114185139577600,9.10957763671875,5.373980522155762,0.9197412133216858,0.47647079825401306
1729114185177512400,9.147512451171876,12.173186302185059,-0.5144568681716919,-0.11964113265275955
1729114185215447300,9.185447265625,11.838191032409668,-0.018843477591872215,-0.5697908997535706
1729114185253382000,9.2233818359375,12.314661979675293,0.33798620104789734,0.3640081584453583
1729114185291316700,9.261316650390626,11.955439567565918,-0.9646066427230835,0.7136593461036682
1729114185329251300,9.299251220703125,14.167603492736816,-0.6484549641609192,0.15583257377147675
1729114185367186200,9.337186279296875,5.431408405303955,0.9460622668266296,-1.5080764293670654
1729114185405121000,9.37512109375,7.964509963989258,0.44805604219436646,-0.21774685382843018
1729114185443055600,9.4130556640625,8.546265602111816,0.24197418987751007,0.019142581149935722
1729114185480990500,9.450990478515624,7.878368377685547,0.20129621028900146,-0.064606212079525
1729114185518925000,9.488925048828126,12.929916381835938,-0.18873389065265656,-0.5099703073501587
1729114185556860000,9.52685986328125,7.727321624755859,0.9604191780090332,-0.675075113773346
1729114185594794800,9.564794677734374,11.021639823913574,0.47916272282600403,0.1869392693042755
1729114185632729300,9.602729248046876,9.242876052856445,-0.2847459018230438,0.009571290574967861
1729114185670664200,9.640664306640625,7.2798638343811035,-0.1863410621881485,-0.6200401782989502
1729114185708598800,9.678598876953124,8.931808471679688,0.8333004713058472,-0.701396107673645
1729114185746533600,9.71653369140625,6.973283290863037,-0.16719847917556763,-0.38763725757598877
1729114185784468500,9.754468505859375,12.053544998168945,0.5700899958610535,0.5410770177841187
1729114185822403000,9.792403076171874,8.802297592163086,-0.21744775772094727,-0.41156548261642456
1729114185860338000,9.830337890625,7.717750549316406,-0.27756741642951965,-0.40677985548973083
1729114185898272500,9.8682724609375,11.138888359069824,-0.2679961323738098,0.27308088541030884
1729114185936207400,9.906207275390624,10.858928680419922,-0.28235307335853577,0.3927220106124878
1729114185974142000,9.944141845703125,6.559025764465332,0.8045865893363953,-0.38763725757598877
1729114186012076800,9.982076904296875,8.797511100769043,-0.29431718587875366,-1.2544373273849487
1729114186050011600,10.02001171875,11.86451244354248,-0.38763725757598877,-0.36610186100006104
1729114186087946200,10.0579462890625,7.0307111740112305,0.2754737138748169,0.7543373107910156
1729114186125881000,10.095881103515625,13.633705139160156,-0.2584248483181,0.5985047817230225
1729114186163815700,10.133815673828124,10.147960662841797,0.07926224917173386,-0.8832506537437439
1729114186201750500,10.17175048828125,9.171091079711914,-0.23210379481315613,-0.14117653667926788
1729114186239685400,10.209685302734375,10.811071395874023,-0.22971096634864807,0.43100717663764954
1729114186277620000,10.247619873046874,12.125329971313477,0.31854450702667236,1.0390832424163818
1729114186315554800,10.285554931640625,8.100900650024414,1.108774185180664,-1.0271191596984863
1729114186353489400,10.323489501953125,12.137293815612793,-0.698704183101654,-0.5841478109359741
1729114186391424300,10.36142431640625,9.245268821716309,-0.045164529234170914,0.37597227096557617
1729114186429359000,10.399359130859375,12.470194816589355,-0.17198412120342255,0.08614161610603333
1729114186467293700,10.437293701171875,9.118449211120605,0.9795617461204529,-0.42831525206565857
1729114186505228500,10.475228515625,8.469695091247559,0.527019202709198,-0.5817549824714661
1729114186543163100,10.5131630859375,11.455039978027344,-1.0052846670150757,-0.08614161610603333
1729114186581098000,10.551097900390625,10.317851066589355,-0.3158525824546814,-0.07657032459974289
1729114186619032800,10.58903271484375,6.8033928871154785,0.17976079881191254,-0.9239286184310913
1729114186656967400,10.626967529296875,9.010771751403809,-0.5934200286865234,0.07417750358581543
1729114186694902300,10.66490234375,7.784749507904053,-0.4833501875400543,-0.2105683982372284
1729114186732836900,10.7028369140625,9.88684368133545,-0.10977073758840561,0.12472587823867798
1729114186770771700,10.740771728515625,9.707382202148438,0.8213363885879517,-0.0023928226437419653
1729114186808706300,10.778706298828125,10.411170959472656,-0.07387840002775192,-0.1866401731967926
1729114186846641200,10.81664111328125,11.938689231872559,-0.6173482537269592,-0.21296121180057526
1729114186884576000,10.854575927734375,9.970592498779297,0.5030909776687622,0.37836506962776184
1729114186922510600,10.892510498046875,7.6890363693237305,0.7902296781539917,-0.38763725757598877
1729114186960445400,10.930445556640626,8.93420124053955,-0.3852444589138031,-0.4163511395454407
1729114186998380000,10.968380126953125,9.333803176879883,-1.0100702047348022,-0.04785645380616188
1729114187036315000,11.00631494140625,10.665109634399414,-0.12891331315040588,0.7328019142150879
1729114187074249700,11.044249755859376,5.254339218139648,0.9436694383621216,0.1941177397966385
1729114187112184300,11.082184326171875,12.77169132232666,-0.6556333899497986,0.04546362906694412
1729114187150119200,11.120119140625,12.678370475769043,-0.607776939868927,-0.33020952343940735
1729114187188053800,11.1580537109375,8.14636516571045,0.8380861282348633,0.09092725813388824
1729114187225988600,11.195988525390625,11.4382905960083,-0.5407779216766357,0.13668999075889587
1729114187263923500,11.23392333984375,12.56112289428711,-0.08823533356189728,-0.11485548317432404
1729114187301858000,11.271858154296876,10.992926597595215,-0.16959130764007568,0.7591229677200317
1729114187339793000,11.30979296875,6.81296443939209,0.42412781715393066,-0.47647079825401306
1729114187377727500,11.3477275390625,9.247661590576172,-0.5096712112426758,-1.3812568187713623
1729114187415662300,11.385662353515626,9.08255672454834,-0.7178468108177185,-0.397208571434021
1729114187453597000,11.423596923828125,9.288339614868164,0.7591229677200317,0.47168517112731934
1729114187491531800,11.46153173828125,10.451848983764648,-0.014057832770049572,-0.4740779995918274
1729114187529466600,11.499466552734376,10.198209762573242,-0.026021946221590042,-0.9574281573295593
1729114187567401200,11.537401123046875,8.289934158325195,0.026620151475071907,-0.5147559642791748
1729114187605336000,11.575336181640624,10.748858451843262,0.11036894470453262,0.8787640929222107
1729114187643270700,11.613270751953126,8.826225280761719,-0.7704889178276062,-0.8258228898048401
1729114187681205500,11.65120556640625,10.937891006469727,-0.5144568681716919,-0.07896314561367035
1729114187719140400,11.689140380859374,9.061020851135254,-0.5910272002220154,-0.27756741642951965
1729114187757075000,11.727074951171875,8.421838760375977,-0.7657032608985901,0.5291129350662231
1729114187795009800,11.765009765625,9.590133666992188,-2.874976396560669,0.1462612897157669
1729114187832944400,11.8029443359375,11.706286430358887,-2.6811578273773193,0.03349951654672623
1729114187870879200,11.840879150390625,8.64915657043457,-2.106581211090088,-0.8138588070869446
1729114187908813800,11.878813720703125,11.069497108459473,-2.2070798873901367,0.10289137065410614
1729114187946748700,11.916748779296874,9.604491233825684,-1.7234305143356323,-0.2919243574142456
1729114187984683500,11.95468359375,9.896415710449219,-2.075474500656128,-0.4307080805301666
1729114188022618000,11.9926181640625,9.034700393676758,-1.8574285507202148,-0.3684946894645691
1729114188060553000,12.030552978515624,10.890034675598145,-2.4945175647735596,-0.45254257321357727
1729114188098487600,12.068487548828125,9.419944763183594,-2.1640090942382812,-0.5937191247940063
1729114188136422400,12.10642236328125,9.302696228027344,-1.80717933177948,-0.854536771774292
1729114188174357200,12.144357177734374,10.53081226348877,-2.3003997802734375,0.2587239444255829
1729114188212291800,12.182291748046875,9.015557289123535,-2.1903300285339355,-0.2679961323738098
1729114188250226700,12.220226806640625,10.38485050201416,-2.3865413665771484,-0.01196411345154047
1729114188288161300,12.258161376953124,9.400801658630371,-2.3482563495635986,-0.35413774847984314
1729114188326096100,12.29609619140625,10.191031455993652,-2.3937199115753174,-0.09571290761232376
1729114188364031000,12.334031005859375,9.645169258117676,-1.7521443367004395,0.05024927482008934
1729114188401965600,12.371965576171876,9.984950065612793,-1.4889339208602905,-0.31824541091918945
1729114188439900400,12.409900390625,9.817452430725098,-0.9861420392990112,-0.062213387340307236
1729114188477835000,12.4478349609375,9.927521705627441,-0.6508477330207825,-0.23210379481315613
1729114188515769900,12.485769775390626,9.884450912475586,-0.2919243574142456,-0.20099709928035736
1729114188553704400,12.523704345703125,9.922736167907715,-0.06669992953538895,-0.21774685382843018
1729114188591639300,12.561639404296875,9.889236450195312,0.17497515678405762,-0.12681959569454193
1729114188629574100,12.59957421875,9.843772888183594,0.21326032280921936,0.16301104426383972
1729114188667508700,12.6375087890625,9.939486503601074,0.1701895147562027,-0.1698904037475586
1729114188705443600,12.675443603515625,9.843772888183594,0.1462612897157669,-0.12921242415905
1729114188743378200,12.713378173828126,9.898808479309082,0.06729813665151596,-0.08135596662759781
1729114188781313000,12.75131298828125,9.901201248168945,-0.009272187948226929,-0.15314064919948578
1729114188819247600,12.78924755859375,9.910772323608398,-0.07627122104167938,-0.11964113265275955
1729114188857182500,12.827182373046876,9.88684368133545,-0.13130614161491394,-0.12681959569454193
1729114188895117300,12.865117431640625,9.882058143615723,-0.17676977813243866,-0.12921242415905
1729114188933052000,12.903052001953125,9.896415710449219,-0.2030908167362213,-0.12442677468061447
1729114188970986800,12.94098681640625,9.889236450195312,-0.20787647366523743,-0.13639089465141296
1729114189008921300,12.97892138671875,9.898808479309082,-0.18394823372364044,-0.12681959569454193
1729114189046856200,13.016856201171874,9.896415710449219,-0.16480566561222076,-0.11964113265275955
1729114189084790800,13.054790771484376,9.884450912475586,-0.13130614161491394,-0.13160525262355804
1729114189122725600,13.0927255859375,9.901201248168945,-0.10259227454662323,-0.12921242415905
1729114189160660500,13.130660400390624,9.891630172729492,-0.09541380405426025,-0.11724831163883209
1729114189198595000,13.168594970703126,9.891630172729492,-0.10259227454662323,-0.11485548317432404
1729114189236530000,13.206530029296875,9.889236450195312,-0.09780662506818771,-0.12203395366668701
1729114189274464500,13.244464599609374,9.884450912475586,-0.10977073758840561,-0.11246266216039658
1729114189312399400,13.2823994140625,9.898808479309082,-0.11934202909469604,-0.12681959569454193
1729114189350334200,13.320334228515625,9.898808479309082,-0.11934202909469604,-0.12681959569454193
1729114189388268800,13.358268798828124,9.905986785888672,-0.133698970079422,-0.12442677468061447
1729114189426203600,13.39620361328125,9.88684368133545,-0.1217348501086235,-0.12203395366668701
1729114189464138200,13.43413818359375,9.901201248168945,-0.12891331315040588,-0.11964113265275955
1729114189502073000,13.472072998046874,9.894022941589355,-0.1217348501086235,-0.12442677468061447
1729114189540008000,13.510008056640626,9.901201248168945,-0.10977073758840561,-0.11485548317432404
1729114189577942500,13.547942626953125,9.882058143615723,-0.1217348501086235,-0.11485548317432404
1729114189615877400,13.58587744140625,9.896415710449219,-0.12652049958705902,-0.12203395366668701
1729114189653812000,13.62381201171875,9.884450912475586,-0.12652049958705902,-0.12921242415905
1729114189691746800,13.661746826171875,9.901201248168945,-0.11216355860233307,-0.11964113265275955
1729114189729681400,13.699681396484374,9.903594017028809,-0.11934202909469604,-0.12442677468061447
1729114189767616300,13.7376162109375,9.917950630187988,-0.11934202909469604,-0.13160525262355804
1729114189805551000,13.775551025390625,9.870094299316406,-0.10737791657447815,-0.06699903309345245
1729114189843485700,13.813485595703124,9.891630172729492,-0.0930209830403328,-0.1052841991186142
1729114189881420500,13.851420654296875,9.896415710449219,-0.12652049958705902,-0.035892341285943985
1729114189919355100,13.889355224609375,9.870094299316406,-0.002093719784170389,-0.24167509377002716
1729114189957290000,13.9272900390625,10.262816429138184,0.4217349886894226,-0.11246266216039658
1729114189995224800,13.965224853515625,9.779167175292969,0.6801598072052002,0.5578267574310303
1729114190033159400,14.003159423828125,10.255638122558594,0.7854440212249756,0.890728235244751
1729114190071094300,14.04109423828125,9.877272605895996,0.7950153350830078,0.8261220455169678
1729114190109028900,14.07902880859375,9.860523223876953,0.43130627274513245,0.9361918568611145
1729114190146963700,14.116963623046875,9.953843116760254,0.2515454888343811,1.4054841995239258
1729114190184898300,14.154898193359376,9.891630172729492,0.08883354067802429,1.189831018447876
1729114190222833200,14.192833251953125,9.95862865447998,-0.20787647366523743,0.7902296781539917
1729114190260768000,14.23076806640625,9.74088191986084,-0.07387840002775192,0.9505487680435181
1729114190298702600,14.26870263671875,10.193424224853516,-0.2584248483181,0.5147559642791748
1729114190336637400,14.306637451171875,10.360921859741211,-0.07387840002775192,0.3520440459251404
1729114190374572000,14.344572021484375,10.540383338928223,0.06969095766544342,0.17258232831954956
1729114190412507000,14.3825068359375,10.617253303527832,0.06251249462366104,0.1462612897157669
1729114190450441500,14.42044140625,9.846165657043457,-0.05473581701517105,-0.04546362906694412
1729114190488376300,14.458376220703125,9.633204460144043,0.10079765319824219,0.30179476737976074
1729114190526311200,14.496311279296876,9.992128372192383,-0.42831525206565857,0.43100717663764954
1729114190564245800,14.534245849609375,10.470992088317871,-0.1504487246274948,0.7184450030326843
1729114190602180600,14.5721806640625,9.635597229003906,-0.2273181527853012,0.20368902385234833
1729114190640115200,14.610115234375,10.159924507141113,-0.3445664644241333,0.9864411354064941
1729114190678050000,14.648050048828125,9.731310844421387,-0.1983051747083664,0.46450668573379517
1729114190715984600,14.685984619140624,9.913165092468262,-0.4043870270252228,0.34247273206710815
1729114190753919500,14.72391943359375,9.434301376342773,-0.04755735024809837,1.2355937957763672
1729114190791854300,14.761854248046875,10.322636604309082,-0.6173482537269592,0.7040880918502808
1729114190829789000,14.799788818359374,10.205389022827148,-0.07387840002775192,1.0342975854873657
1729114190867723800,14.837723876953126,10.102497100830078,-0.5335994362831116,1.0893324613571167
1729114190905658400,14.875658447265625,10.454241752624512,-0.275174617767334,1.0941181182861328
1729114190943593200,14.91359326171875,9.360123634338379,-0.30149564146995544,-0.2273181527853012
1729114190981528000,14.951528076171876,10.152746200561523,-0.760917603969574,-0.5147559642791748
1729114191019462700,14.989462646484375,9.49920654296875,-0.48813581466674805,-0.16749759018421173
1729114191057397500,15.0273974609375,9.793523788452148,-0.5982056856155396,-0.08374879509210587
1729114191095332000,15.06533203125,9.891630172729492,-0.5335994362831116,0.11276176571846008
1729114191133267000,15.103266845703125,9.535099029541016,-0.3278166949748993,-0.07896314561367035
1729114191171201500,15.141201416015624,9.795916557312012,-0.3924229145050049,0.12711870670318604
1729114191209136400,15.179136474609376,9.95145034790039,-0.4331009089946747,0.22043879330158234
1729114191247071200,15.2170712890625,9.994521141052246,-0.45224347710609436,0.8428717851638794
1729114191285005800,15.255005859375,9.836594581604004,-0.47617170214653015,0.3568296730518341
1729114191322940700,15.292940673828125,9.898808479309082,-0.47617170214653015,0.4621138870716095
1729114191360875300,15.330875244140625,9.97298526763916,-0.4785645306110382,0.5865406394004822
1729114191398810000,15.36881005859375,10.645967483520508,-0.5886343717575073,0.5506483316421509
1729114191436744700,15.40674462890625,10.133604049682617,-0.4570291340351105,0.09092725813388824
1729114191474679600,15.444679443359375,10.365707397460938,-0.4331009089946747,0.2994019389152527
1729114191512614400,15.482614501953124,9.587740898132324,-0.24406790733337402,0.5123631358146667
1729114191550549000,15.520549072265625,9.891630172729492,-0.3732803463935852,0.859621524810791
1729114191588483800,15.55848388671875,9.84855842590332,-0.4546363055706024,0.10767702013254166
1729114191626418400,15.59641845703125,10.068997383117676,-0.4498506486415863,0.27786654233932495
1729114191664353300,15.634353271484375,9.903594017028809,-0.24406790733337402,0.610468864440918
1729114191702288000,15.672287841796875,9.791131019592285,-0.24167509377002716,0.5913262963294983
1729114191740222700,15.71022265625,9.939486503601074,-0.30628129839897156,0.612861692905426
1729114191778157600,15.748157470703125,9.788738250732422,-0.38285163044929504,0.246759831905365
1729114191816092200,15.786092041015625,9.9442720413208,-0.4139583110809326,0.26111677289009094
1729114191854027000,15.824027099609374,10.176674842834473,-0.3206382393836975,0.27786654233932495
1729114191891961600,15.861961669921875,9.494421005249023,-0.11694920808076859,-0.02632104977965355
1729114191929896400,15.899896484375,9.360123634338379,-0.23688943684101105,-0.6487540602684021
1729114191967831000,15.9378310546875,9.673882484436035,-0.9358927607536316,-1.5128620862960815
1729114192005766000,15.975765869140625,9.903594017028809,-1.1799606084823608,-1.0100702047348022
1729114192043700500,16.013700439453125,9.776774406433105,-1.5152549743652344,-1.3860424757003784
1729114192081635300,16.05163525390625,10.028020858764648,-1.8646070957183838,-1.2616157531738281
1729114192119570200,16.089570068359375,9.8509521484375,-1.4913266897201538,-0.13160525262355804
1729114192157504800,16.1275048828125,10.071390151977539,-1.158425211906433,-0.16749759018421173
1729114192195439600,16.165439697265626,9.688240051269531,-0.6460621356964111,-0.49322056770324707
1729114192233374200,16.203374267578123,9.896415710449219,-0.2727817893028259,-0.1459621787071228
1729114192271309000,16.24130908203125,9.810274124145508,0.09840483218431473,0.05742774158716202
1729114192309244000,16.279243896484374,9.889236450195312,0.24915266036987305,-0.32542386651039124
1729114192347178500,16.317178466796875,9.84138011932373,0.2826521694660187,-0.22971096634864807
1729114192385113300,16.35511328125,9.915557861328125,0.33798620104789734,-0.17706887423992157
1729114192423048000,16.3930478515625,9.882058143615723,0.4217349886894226,-0.30149564146995544
1729114192460982800,16.430982666015623,9.913165092468262,0.40259242057800293,-0.12203395366668701
1729114192498917400,16.46891748046875,9.882058143615723,0.2994019389152527,-0.2512463629245758
1729114192536852200,16.506852294921874,9.908379554748535,0.16061821579933167,-0.19381862878799438
1729114192574787000,16.544787109375,9.908379554748535,0.04336991161108017,-0.22492532432079315
1729114192612721700,16.5827216796875,9.88684368133545,-0.02841476909816265,-0.23210379481315613
1729114192650656500,16.620656494140626,9.898808479309082,-0.0690927505493164,-0.2225325107574463
1729114192688591000,16.658591064453127,9.903594017028809,-0.05712864175438881,-0.22013968229293823
1729114192726526000,16.69652587890625,9.908379554748535,0.00029910283046774566,-0.20817556977272034
1729114192764460500,16.73446044921875,9.896415710449219,0.07208377867937088,-0.2225325107574463
1729114192802395400,16.7723955078125,9.894022941589355,0.10319047421216965,-0.20817556977272034
1729114192840330200,16.810330322265624,9.898808479309082,0.1295115202665329,-0.20578274130821228
1729114192878264800,16.848264892578126,9.891630172729492,0.1055833026766777,-0.2153540402650833
1729114192916199700,16.88619970703125,9.905986785888672,0.06969095766544342,-0.21296121180057526
1729114192954134300,16.92413427734375,9.905986785888672,0.05054837837815285,-0.21296121180057526
1729114192992069000,16.962069091796874,9.889236450195312,0.04815555736422539,-0.20817556977272034
1729114193030003700,17.000003662109375,9.891630172729492,0.06011966988444328,-0.21296121180057526
1729114193067938600,17.0379384765625,9.894022941589355,0.06729813665151596,-0.22013968229293823
1729114193105873400,17.075873291015625,9.901201248168945,0.09122636169195175,-0.2153540402650833
1729114193143808000,17.11380810546875,9.898808479309082,0.06969095766544342,-0.20578274130821228
1729114193181742800,17.151742919921876,9.889236450195312,0.06729813665151596,-0.2105683982372284
1729114193219677400,17.189677490234374,9.915557861328125,0.06251249462366104,-0.2225325107574463
1729114193257612300,17.2276123046875,9.894022941589355,0.0649053156375885,-0.2225325107574463
1729114193295547000,17.265546875,9.908379554748535,0.06729813665151596,-0.23210379481315613
1729114193333481700,17.303481689453125,9.884450912475586,0.06969095766544342,-0.21296121180057526
1729114193371416600,17.34141650390625,9.903594017028809,0.06969095766544342,-0.2153540402650833
1729114193409351200,17.37935107421875,9.882058143615723,0.07447660714387894,-0.20099709928035736
1729114193447286000,17.4172861328125,9.896415710449219,0.07447660714387894,-0.2225325107574463
1729114193485220600,17.455220703125,9.905986785888672,0.06251249462366104,-0.21296121180057526
1729114193523155500,17.493155517578124,9.884450912475586,0.06729813665151596,-0.2225325107574463
1729114193561090000,17.531090087890625,9.901201248168945,0.057726845145225525,-0.21296121180057526
1729114193599025000,17.56902490234375,9.884450912475586,0.07208377867937088,-0.22013968229293823
1729114193636959700,17.606959716796876,9.910772323608398,0.07447660714387894,-0.20338992774486542
1729114193674894300,17.644894287109373,9.88684368133545,0.06251249462366104,-0.22492532432079315
1729114193712829200,17.6828291015625,9.896415710449219,0.07208377867937088,-0.21774685382843018
1729114193750763800,17.720763671875,9.96580696105957,0.04815555736422539,-0.24406790733337402
1729114193788698600,17.75869873046875,9.877272605895996,0.46719861030578613,-0.2584248483181
1729114193826633200,17.79663330078125,9.903594017028809,0.7998009920120239,-0.15314064919948578
1729114193864568000,17.834568115234376,9.870094299316406,1.2595219612121582,-0.02632104977965355
1729114193902502700,17.872502685546873,9.932307243347168,1.537388563156128,-0.24406790733337402
1729114193940437500,17.9104375,9.62363338470459,1.848455548286438,-0.1459621787071228
1729114193978372400,17.948372314453124,9.882058143615723,1.7527425289154053,-0.17706887423992157
1729114194016307000,17.986306884765625,9.403194427490234,1.6785650253295898,-0.1579262912273407
1729114194054241800,18.02424169921875,9.415159225463867,2.0641086101531982,0.059820566326379776
1729114194092176400,18.06217626953125,9.72652530670166,2.061715841293335,0.11276176571846008
1729114194130111200,18.100111328125,10.81825065612793,1.4991034269332886,-0.062213387340307236
1729114194168046000,18.138046142578126,9.635597229003906,1.786242127418518,-0.363709032535553
1729114194205980700,18.175980712890624,10.296316146850586,1.8436698913574219,-0.016749758273363113
1729114194243915500,18.21391552734375,8.194221496582031,2.109572172164917,0.01196411345154047
1729114194281850000,18.25185009765625,9.633204460144043,2.212463617324829,0.16540385782718658
1729114194319785000,18.289784912109376,7.9381890296936035,2.415853500366211,-0.2105683982372284
1729114194357719600,18.327719482421877,10.526026725769043,1.5206388235092163,0.3568296730518341
1729114194395654400,18.365654296875,8.40748119354248,0.5485545992851257,-0.6511468887329102
1729114194433589200,18.40358935546875,11.728120803833008,0.828514814376831,0.43100717663764954
1729114194471523800,18.44152392578125,9.319445610046387,1.3025928735733032,-0.36610186100006104
1729114194509458700,18.479458740234374,12.244970321655273,0.3355933725833893,0.12711870670318604
1729114194547393300,18.517393310546876,8.701798439025879,0.5676971673965454,0.0933200865983963
1729114194585328000,18.555328125,9.226125717163086,0.15104693174362183,-0.1579262912273407
1729114194623262700,18.5932626953125,13.073485374450684,-0.45224347710609436,0.02392822690308094
1729114194661197600,18.631197509765624,8.201399803161621,1.163809061050415,-0.3206382393836975
1729114194699132400,18.66913232421875,8.927022933959961,0.44805604219436646,-0.7851449251174927
1729114194737067000,18.70706689453125,8.376375198364258,0.0026919255033135414,-1.1491531133651733
1729114194775001900,18.745001953125,12.424731254577637,-0.6436693072319031,-0.6296114325523376
1729114194812936400,18.7829365234375,8.299505233764648,0.4001995921134949,0.22522443532943726
1729114194850871300,18.820871337890626,9.750452995300293,-0.040378883481025696,-1.0295119285583496
1729114194888806000,18.858805908203124,9.64038372039795,-0.30628129839897156,-0.4019941985607147
1729114194926740700,18.89674072265625,11.208579063415527,-0.45224347710609436,-0.10767702013254166
1729114194964675300,18.93467529296875,5.4194440841674805,0.39062830805778503,-0.6583253145217896
1729114195002610200,18.972610107421875,10.083354949951172,0.24915266036987305,-0.2727817893028259
1729114195040545000,19.010544921875,11.187044143676758,-0.5144568681716919,-0.6056832075119019
1729114195078479600,19.048479736328126,8.002795219421387,0.26111677289009094,-0.5195416212081909
1729114195116414500,19.08641455078125,10.861321449279785,-0.4833501875400543,-0.5841478109359741
1729114195154349000,19.12434912109375,11.280364036560059,0.5916253924369812,-0.004785645287483931
1729114195192284000,19.162283935546874,12.170793533325195,0.6370890140533447,0.20368902385234833
1729114195230218500,19.200218505859375,8.79511833190918,0.6945167779922485,-0.7205387353897095
1729114195268153300,19.2381533203125,12.03200912475586,-0.3732803463935852,-0.5434698462486267
1729114195306088200,19.276088134765626,8.220541954040527,0.3355933725833893,-0.6607181429862976
1729114195344022800,19.314022705078123,14.043176651000977,1.1255239248275757,0.6320042610168457
1729114195381957600,19.35195751953125,9.350552558898926,-0.20548364520072937,-0.09092725813388824
1729114195419892200,19.389892333984374,7.0785675048828125,0.8069794178009033,-0.701396107673645
1729114195457827000,19.4278271484375,12.896416664123535,-0.009272187948226929,-0.14117653667926788
1729114195495761700,19.46576171875,7.684250831604004,0.7615157961845398,-0.2847459018230438
1729114195533696500,19.503696533203126,8.02193832397461,0.6753742098808289,-0.8210372924804688
1729114195571631400,19.54163134765625,9.436694145202637,0.07447660714387894,-0.5291129350662231
1729114195609566000,19.57956591796875,8.553443908691406,0.7471588850021362,-0.6607181429862976
1729114195647500800,19.617500732421874,11.383255958557129,0.1869392693042755,0.5267201066017151
1729114195685435400,19.655435302734375,8.902795791625977,0.649053156375885,-1.1300104856491089
1729114195723370200,19.693370361328125,10.092926025390625,-0.133698970079422,-0.06939185410737991
1729114195761304800,19.731304931640626,11.306685447692871,0.10079765319824219,-0.04785645380616188
1729114195799239700,19.76923974609375,7.868797302246094,0.4001995921134949,-0.30149564146995544
1729114195837174300,19.80717431640625,10.8397855758667,0.25633111596107483,-0.3684946894645691
1729114195875109000,19.845109130859374,13.817952156066895,0.43609192967414856,0.43579283356666565
1729114195913044000,19.8830439453125,6.664309978485107,0.4911268353462219,0.38793638348579407
1729114195950978600,19.920978515625,11.270792961120605,-0.349352091550827,-0.04307080805301666
1729114195988913400,19.958913330078126,6.93739128112793,0.08165507018566132,-0.4621138870716095
1729114196026848000,19.996847900390627,9.063413619995117,0.031405795365571976,-0.040677983313798904
1729114196064782800,20.034782958984376,11.206186294555664,-0.5479564070701599,-0.24646073579788208
1729114196102717700,20.0727177734375,7.959724426269531,0.44327038526535034,0.24197418987751007
1729114196140652300,20.11065234375,10.258030891418457,-0.3397808074951172,0.11994023621082306
1729114196178587100,20.148587158203124,8.421838760375977,-0.19351953268051147,-0.39481574296951294
1729114196216521700,20.186521728515626,8.117650985717773,-0.00687936507165432,-0.3445664644241333
1729114196254456600,20.22445654296875,11.16042423248291,-0.014057832770049572,-0.10289137065410614
1729114196292391200,20.26239111328125,11.179865837097168,-0.18873389065265656,0.01196411345154047
1729114196330326000,20.300325927734374,8.953344345092773,1.0226325988769531,-0.45972105860710144
1729114196368260900,20.3382607421875,9.628418922424316,-0.2030908167362213,-0.2392822653055191
1729114196406195500,20.376195556640624,9.984950065612793,-0.5527420043945312,-0.37088751792907715
1729114196444130300,20.41413037109375,9.530313491821289,0.08404789865016937,-0.643968403339386
1729114196482065000,20.45206494140625,11.033604621887207,0.6275177597999573,0.246759831905365
1729114196519999700,20.489999755859376,9.252447128295898,0.8093722462654114,0.37118661403656006
1729114196557934300,20.527934326171874,12.268898963928223,-0.550349235534668,-1.2376874685287476
1729114196595869200,20.565869140625,12.091830253601074,-0.05234299600124359,0.04546362906694412
1729114196633803800,20.6038037109375,8.474480628967285,0.07208377867937088,-0.33499518036842346
1729114196671738600,20.641738525390625,12.891631126403809,0.09840483218431473,0.0023928226437419653
1729114196709673500,20.679673583984375,9.788738250732422,0.057726845145225525,-0.4259224236011505
1729114196747608000,20.717608154296876,5.886343479156494,-0.1983051747083664,-0.5075774788856506
1729114196785543000,20.75554296875,9.063413619995117,-1.09381902217865,0.3927220106124878
1729114196823477500,20.7934775390625,10.583454132080078,0.4863412082195282,0.2874378263950348
1729114196861412400,20.831412353515624,7.7129645347595215,0.3041875660419464,-1.1132607460021973
1729114196899347000,20.869346923828125,14.658431053161621,0.6777670383453369,-0.4331009089946747
1729114196937281800,20.90728173828125,9.707382202148438,-0.08584251254796982,1.6567305326461792
1729114196975216600,20.945216552734376,9.434301376342773,0.1941177397966385,-0.1746760457754135
1729114197013151200,20.983151123046873,9.16869831085205,-0.35892340540885925,-0.15553347766399384
1729114197051086000,21.021086181640626,5.682953834533691,-0.5838487148284912,-0.6726822853088379
1729114197089020700,21.059020751953124,7.454539775848389,0.16061821579933167,-0.07657032459974289
1729114197126955500,21.09695556640625,10.590633392333984,0.14386846125125885,0.05024927482008934
1729114197164890000,21.13489013671875,11.847762107849121,-0.30149564146995544,0.038285162299871445
1729114197202825000,21.172824951171876,9.573384284973145,-0.16002000868320465,-0.7564310431480408
1729114197240759800,21.210759765625,9.573384284973145,0.20368902385234833,0.643968403339386
1729114197278694400,21.2486943359375,12.197113990783691,-0.4450650215148926,0.1295115202665329
1729114197316629200,21.286629150390624,11.440683364868164,0.6035895347595215,-0.007178467698395252
1729114197354563800,21.324563720703125,6.693323135375977,0.5724828243255615,-0.5937191247940063
1729114197392498700,21.362498779296875,11.589037895202637,-0.9311071038246155,-0.059820566326379776
1729114197430433300,21.400433349609376,9.230911254882812,0.2922234535217285,0.1869392693042755
1729114197468368100,21.4383681640625,7.6651082038879395,0.8859425783157349,-0.6008976101875305
1729114197506302700,21.476302734375,14.351851463317871,-0.8042874932289124,0.6969096064567566
1729114197544237600,21.514237548828124,12.132508277893066,-0.4546363055706024,0.30658039450645447
1729114197582172400,21.55217236328125,7.449754238128662,0.802193820476532,-0.9885348677635193
1729114197620107000,21.59010693359375,9.783952713012695,-0.31345975399017334,-0.29431718587875366
1729114197658041900,21.628041748046876,10.650753021240234,-0.9478568434715271,-0.16271193325519562
1729114197695976400,21.6659765625,8.77358341217041,-0.3445664644241333,-0.040677983313798904
1729114197733911300,21.703911376953126,9.240483283996582,1.2667005062103271,-1.1730812788009644
1729114197771846000,21.741845947265624,12.381660461425781,0.2826521694660187,-0.33499518036842346
1729114197809780700,21.77978076171875,11.835798263549805,-1.196710467338562,-0.1579262912273407
1729114197847715600,21.817715576171874,8.577371597290039,0.28504499793052673,-0.28235307335853577
1729114197885650200,21.855650146484376,10.851749420166016,-0.760917603969574,-0.26560330390930176
1729114197923585000,21.8935849609375,9.934700965881348,-0.07866404205560684,-0.17946170270442963
1729114197961519600,21.93151953125,7.53350305557251,-0.1863410621881485,-0.349352091550827
1729114197999454500,21.969454345703124,8.838189125061035,0.057726845145225525,-0.2632105052471161
1729114198037389300,22.007389404296877,11.711071968078613,-2.013261079788208,-0.11964113265275955
1729114198075324000,22.045323974609374,8.938986778259277,-0.5024927258491516,-0.6080760359764099
1729114198113258800,22.0832587890625,10.772787094116211,-1.6995022296905518,-0.9669994711875916
1729114198151193300,22.121193359375,10.463813781738281,-1.5726827383041382,0.08853443711996078
1729114198189128200,22.159128173828126,9.333803176879883,-1.8861424922943115,-0.20338992774486542
1729114198227062800,22.197062744140624,13.032807350158691,-2.740978240966797,-0.7085745930671692
1729114198264997600,22.23499755859375,7.808976650238037,-1.7353945970535278,-0.8760721683502197
1729114198302932500,22.272932373046874,11.172687530517578,-2.0874385833740234,0.6176473498344421
1729114198340867000,22.3108671875,10.411170959472656,-2.2046868801116943,-0.2392822653055191
1729114198378802000,22.348802001953125,10.82542896270752,-2.5351955890655518,-0.9382855892181396
1729114198416736500,22.386736572265626,10.171889305114746,-1.6109678745269775,-0.363709032535553
1729114198454671400,22.42467138671875,9.460622787475586,-1.8095721006393433,-0.28235307335853577
1729114198492606000,22.46260595703125,10.179067611694336,-2.4583261013031006,-0.13878370821475983
1729114198530540800,22.500540771484374,9.566205978393555,-2.123331069946289,0.11515458673238754
1729114198568475400,22.538475341796875,10.054640769958496,-2.14725923538208,0.064606212079525
1729114198606410200,22.57641015625,9.62363338470459,-2.2525434494018555,-0.22492532432079315
1729114198644345000,22.614344970703126,10.011270523071289,-1.9462621212005615,-0.32542386651039124
1729114198682279700,22.65227978515625,9.75523853302002,-1.46500563621521,-0.1579262912273407
1729114198720214500,22.690214599609376,9.992128372192383,-1.0603195428848267,-0.2392822653055191
1729114198758149000,22.728149169921874,9.836594581604004,-0.641276478767395,-0.31345975399017334
1729114198796084000,22.766083984375,9.953843116760254,-0.24646073579788208,-0.08135596662759781
1729114198834018600,22.8040185546875,9.838987350463867,0.04815555736422539,-0.36610186100006104
1729114198871953400,22.841953369140626,9.920343399047852,0.20847466588020325,-0.14356936514377594
1729114198909888300,22.87988818359375,9.867701530456543,0.24436701834201813,-0.2392822653055191
1729114198947822800,22.91782275390625,9.896415710449219,0.17258232831954956,-0.2105683982372284
1729114198985757700,22.9557578125,9.903594017028809,0.10079765319824219,-0.1866401731967926
1729114199023692300,22.9936923828125,9.894022941589355,0.10079765319824219,-0.30149564146995544
1729114199061627100,23.031627197265625,9.889236450195312,0.17258232831954956,-0.1579262912273407
1729114199099561700,23.069561767578126,9.896415710449219,0.10319047421216965,-0.23210379481315613
1729114199137496600,23.10749658203125,9.896415710449219,0.04815555736422539,-0.23449662327766418
1729114199175431400,23.145431396484376,9.894022941589355,0.007477570790797472,-0.2105683982372284
1729114199213366000,23.183365966796874,9.896415710449219,-0.03798605874180794,-0.22492532432079315
1729114199251300900,23.22130078125,9.896415710449219,-0.06669992953538895,-0.2225325107574463
1729114199289235500,23.2592353515625,9.905986785888672,-0.10259227454662323,-0.22492532432079315
1729114199327170300,23.29717041015625,9.882058143615723,-0.12412767112255096,-0.22013968229293823
1729114199365105000,23.33510498046875,9.901201248168945,-0.14087744057178497,-0.21774685382843018
1729114199403039700,23.373039794921876,9.877272605895996,-0.13848461210727692,-0.2225325107574463
1729114199440974300,23.410974365234374,9.88684368133545,-0.07627122104167938,-0.22971096634864807
1729114199478909200,23.4489091796875,9.894022941589355,-0.026021946221590042,-0.22492532432079315
1729114199516844000,23.486843994140624,9.901201248168945,-0.004486542660742998,-0.23210379481315613
1729114199554778600,23.524778564453126,9.88684368133545,-0.00687936507165432,-0.2273181527853012
1729114199592713500,23.56271337890625,9.908379554748535,-0.00687936507165432,-0.23449662327766418
1729114199630648000,23.60064794921875,9.903594017028809,-0.018843477591872215,-0.22013968229293823
1729114199668583000,23.6385830078125,9.884450912475586,-0.03559323772788048,-0.2225325107574463
1729114199706517500,23.676517578125,9.901201248168945,-0.04755735024809837,-0.21774685382843018
1729114199744452400,23.714452392578124,9.898808479309082,-0.05952146276831627,-0.22492532432079315
1729114199782387200,23.75238720703125,9.882058143615723,-0.04995017126202583,-0.22013968229293823
1729114199820321800,23.79032177734375,9.915557861328125,-0.042771704494953156,-0.22013968229293823
1729114199858256600,23.828256591796876,9.894022941589355,-0.05234299600124359,-0.22492532432079315
1729114199896191200,23.866191162109374,9.917950630187988,-0.045164529234170914,-0.20099709928035736
1729114199934126000,23.9041259765625,9.896415710449219,-0.05234299600124359,-0.22013968229293823
1729114199972061000,23.94206103515625,9.896415710449219,-0.08584251254796982,-0.19381862878799438
1729114200009995500,23.97999560546875,9.929914474487305,-0.11694920808076859,-0.16749759018421173
1729114200047930000,24.01793017578125,9.977771759033203,-0.1456630825996399,-0.20578274130821228
1729114200085865000,24.055864990234376,9.843772888183594,-0.10259227454662323,-0.37088751792907715
1729114200123799800,24.0937998046875,10.006484985351562,0.02183450572192669,0.3448655605316162
1729114200161734400,24.131734375,9.807881355285645,0.11036894470453262,0.3496512174606323
1729114200199669200,24.169669189453124,9.908379554748535,0.11276176571846008,0.5889334678649902
1729114200237603800,24.207603759765625,9.903594017028809,0.16061821579933167,0.7471588850021362
1729114200275538700,24.24553857421875,9.86530876159668,0.08883354067802429,0.7543373107910156
1729114200313473300,24.283473388671876,9.937093734741211,-0.09541380405426025,0.5506483316421509
1729114200351408000,24.321408203125,9.831809043884277,-0.07387840002775192,0.6056832075119019
1729114200389343000,24.359343017578126,9.84855842590332,-0.1743769496679306,0.30658039450645447
1729114200427277600,24.397277587890624,9.977771759033203,-0.5886343717575073,-0.46450668573379517
1729114200465212400,24.43521240234375,9.82702350616455,-0.4953143000602722,-0.2225325107574463
1729114200503147000,24.47314697265625,9.987342834472656,-0.47617170214653015,-0.5697908997535706
1729114200541081900,24.511081787109376,9.767203330993652,-0.4139583110809326,-0.4668995141983032
1729114200579016700,24.5490166015625,9.614062309265137,-0.1217348501086235,0.05742774158716202
1729114200616951300,24.586951416015626,10.018449783325195,-0.40677985548973083,-0.19621145725250244
1729114200654886100,24.62488623046875,9.666704177856445,-0.349352091550827,-0.3756731450557709
1729114200692820700,24.66282080078125,9.84855842590332,-0.23449662327766418,0.02153540402650833
1729114200730755600,24.700755615234375,9.891630172729492,-0.2512463629245758,0.04307080805301666
1729114200768690200,24.738690185546876,9.781559944152832,-0.3206382393836975,-0.11006984114646912
1729114200806625000,24.776625,9.700203895568848,-0.2560320198535919,0.20129621028900146
1729114200844559600,24.8145595703125,9.95862865447998,-0.2584248483181,0.41904306411743164
1729114200882494500,24.852494384765624,9.822237968444824,-0.5335994362831116,-0.12442677468061447
1729114200920429300,24.89042919921875,9.728918075561523,-0.30149564146995544,0.22761724889278412
1729114200958364000,24.928364013671874,9.800702095031738,-0.3684946894645691,0.02871387079358101
1729114200996298800,24.966298828125,10.052248001098633,-0.5527420043945312,-0.062213387340307236
1729114201034233300,25.0042333984375,9.855737686157227,-0.3924229145050049,-0.08374879509210587
1729114201072168200,25.042168212890626,9.882058143615723,-0.4259224236011505,-0.21774685382843018
1729114201110102800,25.080102783203124,9.88684368133545,-0.48574298620224,-0.2919243574142456
1729114201148037600,25.11803759765625,9.760024070739746,-0.34217363595962524,-0.12442677468061447
1729114201185972500,25.155972412109374,9.884450912475586,-0.38763725757598877,-0.23210379481315613
1729114201223907000,25.193906982421876,10.138389587402344,-0.5359922647476196,0.035892341285943985
1729114201261842000,25.231842041015625,9.934700965881348,-0.5670989751815796,-0.5027918815612793
1729114201299776500,25.269776611328126,9.750452995300293,-0.39481574296951294,-0.3326023519039154
1729114201337711400,25.30771142578125,9.84138011932373,-0.4091726839542389,0.10049854964017868
1729114201375646000,25.34564599609375,9.853344917297363,-0.43549370765686035,-0.031106693670153618
1729114201413580800,25.383580810546874,9.676275253295898,-0.3397808074951172,0.064606212079525
1729114201451515600,25.421515625,10.04267692565918,-0.49292147159576416,-0.22013968229293823
1729114201489450200,25.4594501953125,9.970592498779297,-0.5335994362831116,-0.4573282301425934
1729114201527385000,25.497385009765626,9.896415710449219,-0.363709032535553,-0.08853443711996078
1729114201565319700,25.535319580078124,9.908379554748535,-0.363709032535553,0.031106693670153618
1729114201603254500,25.573254638671877,10.114460945129395,-0.5742774605751038,-0.01196411345154047
1729114201641189000,25.611189208984374,10.006484985351562,-0.5623133182525635,-0.3732803463935852
1729114201679124000,25.6491240234375,9.82702350616455,-0.36610186100006104,-0.014356935396790504
1729114201717058600,25.68705859375,9.836594581604004,-0.3756731450557709,0.06939185410737991
1729114201754993400,25.724993408203126,9.963414192199707,-0.5359922647476196,-0.08374879509210587
1729114201792928300,25.76292822265625,9.771988868713379,-0.4139583110809326,-0.1579262912273407
1729114201830862800,25.80086279296875,9.961021423339844,-0.48813581466674805,-0.1986042857170105
1729114201868797700,25.838797607421874,10.032806396484375,-0.6029912829399109,-0.23688943684101105
1729114201906732300,25.876732177734375,9.822237968444824,-0.49292147159576416,-1.1491531133651733
1729114201944667100,25.914667236328125,9.664311408996582,-0.41156548261642456,-2.077867269515991
1729114201982601700,25.952601806640626,10.083354949951172,-0.3038884699344635,-1.678265929222107
1729114202020536600,25.99053662109375,9.743274688720703,-0.27756741642951965,-1.3549357652664185
1729114202058471400,26.028471435546876,9.578169822692871,-0.045164529234170914,0.009571290574967861
1729114202096406000,26.066406005859374,9.736096382141113,-0.009272187948226929,0.2826521694660187
1729114202134340900,26.1043408203125,9.987342834472656,-0.06430710852146149,-0.19621145725250244
1729114202172275500,26.142275390625,9.795916557312012,-0.040378883481025696,-0.15074782073497772
1729114202210210300,26.180210205078126,9.88684368133545,-0.05952146276831627,-0.07896314561367035
1729114202248145000,26.218144775390623,9.83420181274414,-0.0810568705201149,-0.16749759018421173
1729114202286079700,26.256079833984376,9.917950630187988,-0.0930209830403328,-0.1339980661869049
1729114202324014600,26.2940146484375,9.901201248168945,-0.07866404205560684,-0.14835500717163086
1729114202361949200,26.33194921875,9.913165092468262,-0.10259227454662323,-0.15553347766399384
1729114202399884000,26.369884033203125,9.894022941589355,-0.07148557901382446,-0.16271193325519562
1729114202437818600,26.407818603515626,9.905986785888672,-0.07627122104167938,-0.13639089465141296
1729114202475753500,26.44575341796875,9.889236450195312,-0.07627122104167938,-0.16031911969184875
1729114202513688000,26.48368798828125,9.88684368133545,-0.07387840002775192,-0.14356936514377594
1729114202551623000,26.521622802734374,9.905986785888672,-0.07627122104167938,-0.15314064919948578
1729114202589557500,26.5595576171875,9.901201248168945,-0.0810568705201149,-0.1459621787071228
1729114202627492400,26.597492431640624,9.901201248168945,-0.07627122104167938,-0.1459621787071228
1729114202665427200,26.63542724609375,9.88684368133545,-0.07627122104167938,-0.15314064919948578
1729114202703361800,26.67336181640625,9.903594017028809,-0.07866404205560684,-0.14117653667926788
1729114202741296600,26.711296630859376,9.88684368133545,-0.0810568705201149,-0.14835500717163086
1729114202779231200,26.749231201171874,9.898808479309082,-0.0810568705201149,-0.15074782073497772
1729114202817166000,26.787166015625,9.884450912475586,-0.0810568705201149,-0.14117653667926788
1729114202855101000,26.825100830078124,9.908379554748535,-0.0810568705201149,-0.14835500717163086
1729114202893035500,26.863035400390626,9.896415710449219,-0.08584251254796982,-0.13878370821475983
1729114202930970400,26.900970458984375,9.901201248168945,-0.08344969153404236,-0.14835500717163086
1729114202968905000,26.938905029296876,9.88684368133545,-0.08584251254796982,-0.15074782073497772
1729114203006839800,26.97683984375,9.903594017028809,-0.07866404205560684,-0.1459621787071228
1729114203044774400,27.0147744140625,9.896415710449219,-0.07627122104167938,-0.14117653667926788
1729114203082709200,27.052709228515624,9.913165092468262,-0.0810568705201149,-0.14835500717163086
1729114203120643800,27.090643798828125,9.894022941589355,-0.0810568705201149,-0.15074782073497772
1729114203158578700,27.12857861328125,9.891630172729492,-0.07627122104167938,-0.13639089465141296
1729114203196513300,27.16651318359375,9.896415710449219,-0.10259227454662323,-0.15074782073497772
1729114203234448100,27.2044482421875,10.001699447631836,0.009870393201708794,-0.16749759018421173
1729114203272383000,27.242383056640627,9.920343399047852,0.4624129831790924,-0.09810572862625122
1729114203310317600,27.280317626953124,9.896415710449219,0.9652048349380493,-0.3038884699344635
1729114203348252400,27.31825244140625,9.908379554748535,1.3815559148788452,-0.004785645287483931
1729114203386187000,27.35618701171875,9.829416275024414,1.683350682258606,-0.1579262912273407
1729114203424121900,27.394121826171876,9.745667457580566,1.8293129205703735,-0.07657032459974289
1729114203462056700,27.432056640625,9.846165657043457,1.9106688499450684,0.04546362906694412
1729114203499991300,27.4699912109375,9.905986785888672,2.001596212387085,-0.062213387340307236
1729114203537926100,27.507926025390624,9.929914474487305,1.6689938306808472,-0.22492532432079315
1729114203575860700,27.54586083984375,9.647562026977539,1.7216359376907349,-0.4788636267185211
1729114203613795600,27.583795654296875,10.341779708862305,1.4294124841690063,-0.22013968229293823
1729114203651730200,27.621730224609376,8.974879264831543,2.29142689704895,0.25633111596107483
1729114203689665000,27.6596650390625,9.467801094055176,1.970489501953125,0.08374879509210587
1729114203727599600,27.697599609375,9.001200675964355,2.147857427597046,-0.19381862878799438
1729114203765534500,27.735534423828124,7.660322666168213,2.274677038192749,-0.12921242415905
1729114203803469300,27.77346923828125,11.957832336425781,0.5940182209014893,0.5602195858955383
1729114203841404000,27.81140380859375,11.081460952758789,0.49351966381073,0.03349951654672623
1729114203879338800,27.8493388671875,10.092926025390625,0.12472587823867798,0.4405784606933594
1729114203917273300,27.8872734375,12.575479507446289,0.029012974351644516,0.35443684458732605
1729114203955208200,27.925208251953126,10.504491806030273,0.6299105882644653,-0.13878370821475983
1729114203993142800,27.963142822265624,9.116056442260742,1.5589239597320557,0.5051847100257874
1729114204031077600,28.00107763671875,8.369195938110352,1.20687997341156,0.1052841991186142
1729114204069012500,28.039012451171875,11.74008560180664,0.2994019389152527,-0.363709032535553
1729114204106947000,28.076947021484376,9.647562026977539,-0.349352091550827,0.1821536272764206
1729114204144881700,28.114881591796873,12.177971839904785,0.13908281922340393,0.20847466588020325
1729114204182816500,28.15281640625,9.829416275024414,0.6299105882644653,-0.04785645380616188
1729114204220751400,28.19075146484375,8.63479995727539,0.1821536272764206,-0.380458801984787
1729114204258686000,28.22868603515625,7.964509963989258,-0.11694920808076859,-0.33499518036842346
1729114204296620800,28.266620849609374,9.721739768981934,0.5006981492042542,0.47168517112731934
1729114204334555400,28.304555419921876,7.902296543121338,-0.3684946894645691,0.48843491077423096
1729114204372490200,28.342490234375,13.564312934875488,-0.7345965504646301,-0.2991028428077698
1729114204410425000,28.380425048828126,9.678668022155762,0.1989033818244934,-0.40677985548973083
1729114204448359700,28.418359619140624,12.549158096313477,-0.2150549292564392,0.38315072655677795
1729114204486294500,28.45629443359375,10.796714782714844,-0.48574298620224,0.44297128915786743
1729114204524229000,28.49422900390625,8.644371032714844,0.34277185797691345,-0.31106695532798767
1729114204562164000,28.5321640625,11.921939849853516,0.7184450030326843,0.22761724889278412
1729114204600098600,28.5700986328125,10.102497100830078,-0.5599204897880554,0.0933200865983963
1729114204638033400,28.608033447265626,9.657133102416992,-0.9885348677635193,0.7567301392555237
1729114204675968300,28.64596826171875,14.880964279174805,-0.6867401003837585,-0.31106695532798767
1729114204713902800,28.68390283203125,9.230911254882812,-0.4977070987224579,-0.1698904037475586
1729114204751837700,28.721837646484374,12.573086738586426,0.134297177195549,0.11006984114646912
1729114204789772300,28.759772216796875,10.370492935180664,0.47676992416381836,0.33768710494041443
1729114204827707100,28.79770703125,7.887939929962158,0.31854450702667236,0.3161516785621643
1729114204865641700,28.835641845703126,9.64038372039795,0.36191442608833313,-0.8497511148452759
1729114204903576600,28.87357666015625,10.830214500427246,-0.7899305820465088,-0.3206382393836975
1729114204941511200,28.91151123046875,12.484552383422852,-0.4091726839542389,0.20847466588020325
1729114204979446000,28.949446044921874,8.577371597290039,0.8982058167457581,0.12711870670318604
1729114205017380900,28.987380859375,11.450254440307617,-0.12412767112255096,-0.24885354936122894
1729114205055315500,29.0253154296875,8.292326927185059,0.2706880569458008,-0.22013968229293823
1729114205093250300,29.063250244140626,10.200602531433105,0.3089732229709625,-0.10767702013254166
1729114205131185000,29.101184814453124,9.230911254882812,-0.08823533356189728,0.4812564551830292
1729114205169119700,29.13911962890625,9.197412490844727,0.246759831905365,-0.5697908997535706
1729114205207054300,29.177054443359374,8.237292289733887,0.35473597049713135,-0.062213387340307236
1729114205244989200,29.2149892578125,11.675179481506348,-0.885643482208252,0.05503492057323456
1729114205282924000,29.252924072265625,9.5231351852417,-0.22223339974880219,-0.1052841991186142
1729114205320858600,29.290858642578126,10.947463035583496,-0.20548364520072937,-0.2799602448940277
1729114205358793500,29.32879345703125,10.964212417602539,0.6514459848403931,0.06699903309345245
1729114205396728000,29.36672802734375,7.559823989868164,-0.4426721930503845,0.4812564551830292
1729114205434663000,29.404662841796874,10.569097518920898,-0.2584248483181,-0.20817556977272034
1729114205472597500,29.442597412109375,8.35453987121582,0.9580263495445251,-0.4331009089946747
1729114205510532400,29.480532470703125,13.951951026916504,-0.45942193269729614,-0.363709032535553
1729114205548467000,29.518467041015626,9.063413619995117,0.4289134442806244,-0.28235307335853577
1729114205586401800,29.55640185546875,10.382457733154297,0.3595215976238251,0.3329014480113983
1729114205624336600,29.594336669921876,9.460622787475586,-0.09780662506818771,0.2922234535217285
1729114205662271200,29.632271240234374,8.658727645874023,-0.07148557901382446,-0.07417750358581543
1729114205700206000,29.6702060546875,11.175080299377441,-0.37088751792907715,-0.30149564146995544
1729114205738140700,29.708140625,9.154341697692871,0.43130627274513245,0.08614161610603333
1729114205776075500,29.746075439453126,10.224531173706055,0.2754737138748169,0.17497515678405762
1729114205814010000,29.784010009765623,9.005986213684082,-0.14327025413513184,-0.4019941985607147
1729114205851945000,29.821945068359376,10.928319931030273,-0.607776939868927,-0.20578274130821228
1729114205889879800,29.8598798828125,7.449754238128662,0.4384847581386566,-0.24646073579788208
1729114205927814400,29.897814453125,11.000104904174805,0.21565313637256622,-0.14356936514377594
1729114205965749200,29.935749267578124,11.993724822998047,0.646660327911377,0.12233305722475052
1729114206003683800,29.973683837890626,12.293126106262207,-0.5527420043945312,0.39032918214797974
1729114206041618700,30.01161865234375,8.77358341217041,-0.1983051747083664,-0.05742774158716202
1729114206079553300,30.04955322265625,9.738489151000977,0.41934216022491455,-0.09092725813388824
1729114206117488000,30.087488037109374,11.117353439331055,0.5078766345977783,-0.32303106784820557
1729114206155422700,30.125422607421875,11.74726390838623,-0.729810893535614,0.12711870670318604
1729114206193357600,30.163357666015624,5.702096462249756,0.06011966988444328,-0.27038896083831787
1729114206231292400,30.20129248046875,7.94297456741333,0.1175474151968956,-0.45972105860710144
1729114206269227000,30.23922705078125,9.999306678771973,-0.16480566561222076,-0.24167509377002716
1729114206307161900,30.277161865234376,11.644073486328125,-0.21984058618545532,0.10289137065410614
1729114206345096400,30.315096435546874,6.8967132568359375,-0.0690927505493164,-0.3397808074951172
1729114206383031300,30.35303125,10.578668594360352,0.20368902385234833,0.4501497745513916
1729114206420966000,30.3909658203125,11.199007987976074,-0.5383850932121277,0.3209373354911804
1729114206458900700,30.428900634765625,14.330315589904785,0.01944168470799923,0.43100717663764954
1729114206496835600,30.466835693359375,7.018746852874756,0.3978067636489868,-0.26081767678260803
1729114206534770200,30.504770263671876,11.110174179077148,-0.2919243574142456,-0.5434698462486267
1729114206572705000,30.542705078125,9.561420440673828,-1.4626128673553467,-0.5985047817230225
1729114206610639600,30.5806396484375,10.689038276672363,0.10319047421216965,-0.038285162299871445
1729114206648574500,30.618574462890624,9.496813774108887,0.4815555512905121,0.49322056770324707
1729114206686509000,30.656509033203125,9.628418922424316,-0.7513462901115417,0.5362913608551025
1729114206724444000,30.69444384765625,10.382457733154297,-0.4259224236011505,-0.5865406394004822
1729114206762378500,30.73237841796875,7.993224143981934,0.22522443532943726,-0.4163511395454407
1729114206800313300,30.770313232421874,12.920345306396484,-0.3565305769443512,1.048654556274414
1729114206838248200,30.808248291015627,10.629217147827148,-0.7034898400306702,0.07178468257188797
1729114206876182800,30.846182861328124,9.645169258117676,0.5198407173156738,-0.9095717072486877
1729114206914117600,30.88411767578125,8.955737113952637,0.44805604219436646,-0.3158525824546814
1729114206952052200,30.92205224609375,8.079365730285645,0.12472587823867798,-0.02153540402650833
1729114206989987000,30.959987060546876,9.87966537475586,-0.6125625967979431,-0.5027918815612793
1729114207027921700,30.997921630859373,11.280364036560059,0.33050861954689026,0.09571290761232376
1729114207065856500,31.0358564453125,4.840082168579102,0.9101698994636536,-0.5410770177841187
1729114207103791400,31.073791259765624,10.53799057006836,-0.28235307335853577,0.45254257321357727
1729114207141726000,31.111725830078125,8.989236831665039,-0.7465606927871704,-0.06939185410737991
1729114207179660800,31.149660888671875,13.619348526000977,-0.11455638706684113,-0.06699903309345245
1729114207217595400,31.187595458984376,6.817749977111816,0.6729813814163208,0.16779668629169464
1729114207255530200,31.2255302734375,12.920345306396484,-0.605384111404419,0.368793785572052
1729114207293465000,31.263465087890626,9.472586631774902,0.02183450572192669,-0.0526420995593071
1729114207331399700,31.301399658203124,12.132508277893066,0.17736798524856567,0.42382872104644775
1729114207369334500,31.33933447265625,9.508777618408203,-0.023629123345017433,0.08614161610603333
1729114207407269000,31.37726904296875,9.621240615844727,0.25633111596107483,-0.064606212079525
1729114207445204000,31.415203857421876,8.53190803527832,-0.4785645306110382,-0.734895646572113
1729114207483138600,31.453138671875,12.635299682617188,0.29700911045074463,0.3927220106124878
1729114207521073400,31.491073486328126,3.202493906021118,0.6705885529518127,-0.6655037999153137
1729114207559008000,31.529008056640624,11.799905776977539,-0.2150549292564392,1.079761266708374
1729114207596942800,31.56694287109375,12.41994571685791,0.09840483218431473,-0.12203395366668701
1729114207634877700,31.604877685546874,9.73370361328125,1.1015957593917847,-0.5267201066017151
1729114207672812300,31.642812255859376,10.703394889831543,-0.3924229145050049,-0.01196411345154047
1729114207710747100,31.6807470703125,11.902796745300293,-0.4091726839542389,0.26590242981910706
1729114207748681700,31.718681640625,10.545169830322266,0.22043879330158234,-0.11724831163883209
1729114207786616600,31.756616455078124,7.715357303619385,0.2706880569458008,-0.2967100143432617
1729114207824551200,31.79455126953125,13.351053237915039,-0.2727817893028259,0.2682952284812927
1729114207862486000,31.832486083984374,7.871190071105957,-0.5096712112426758,-0.13878370821475983
1729114207900420900,31.8704208984375,10.636395454406738,0.28983065485954285,0.035892341285943985
1729114207938355500,31.90835546875,11.218151092529297,-1.594218134880066,-0.35892340540885925
1729114207976290300,31.946290283203126,11.407183647155762,-1.0651051998138428,-0.08374879509210587
1729114208014225000,31.984224853515624,7.516753196716309,-1.551147222518921,-1.441077470779419
1729114208052159700,32.02215966796875,10.890034675598145,-2.161616086959839,0.064606212079525
1729114208090094300,32.06009423828125,9.386445045471191,-1.2493525743484497,-0.3924229145050049
1729114208128029200,32.098029296875,10.14317512512207,-1.716252088546753,-0.22492532432079315
1729114208165964000,32.13596411132813,9.20698356628418,-2.970689296722412,-0.11246266216039658
1729114208203898600,32.17389868164062,10.803893089294434,-2.2118654251098633,-0.15553347766399384
1729114208241833500,32.21183349609375,8.742476463317871,-1.2397812604904175,-0.04546362906694412
1729114208279768000,32.24976806640625,9.874879837036133,-2.467897415161133,-0.7061817646026611
1729114208317703000,32.28770288085938,10.38485050201416,-2.068295955657959,-0.14835500717163086
1729114208355637500,32.32563745117187,9.922736167907715,-1.934298038482666,-0.18903298676013947
1729114208393572400,32.363572265625,9.939486503601074,-2.1281166076660156,-0.09810572862625122
1729114208431507200,32.401507080078126,9.913165092468262,-2.298007011413574,-0.1866401731967926
1729114208469441800,32.43944189453125,9.693025588989258,-2.467897415161133,0.02392822690308094
1729114208507376600,32.47737670898437,9.905986785888672,-2.2597219944000244,-0.42352959513664246
1729114208545311200,32.515311279296874,9.82702350616455,-1.8263218402862549,-0.13878370821475983
1729114208583246000,32.55324609375,9.95862865447998,-1.4434702396392822,-0.1339980661869049
1729114208621181000,32.59118090820313,9.894022941589355,-1.129711389541626,-0.3445664644241333
1729114208659115500,32.62911547851562,9.97298526763916,-0.672383189201355,0.02392822690308094
1729114208697050400,32.66705029296875,9.870094299316406,-0.2871387302875519,-0.1866401731967926
1729114208734985000,32.70498486328125,9.917950630187988,-0.026021946221590042,-0.1579262912273407
1729114208772919800,32.742919921875,9.86530876159668,0.134297177195549,-0.11246266216039658
1729114208810854400,32.7808544921875,9.889236450195312,0.20368902385234833,-0.1746760457754135
1729114208848789200,32.818789306640625,9.874879837036133,0.20847466588020325,-0.1459621787071228
1729114208886724000,32.85672412109375,9.920343399047852,0.10319047421216965,-0.13160525262355804
1729114208924658700,32.89465869140625,9.891630172729492,0.005084747914224863,-0.18903298676013947
1729114208962593300,32.93259326171875,9.903594017028809,-0.011665010824799538,-0.14117653667926788
1729114209000528100,32.970528076171874,9.882058143615723,0.00029910283046774566,-0.16510476171970367
1729114209038463000,33.008462890625,9.88684368133545,0.007477570790797472,-0.1579262912273407
1729114209076397600,33.0463974609375,9.889236450195312,-0.002093719784170389,-0.15074782073497772
1729114209114332400,33.08433251953125,9.896415710449219,-0.023629123345017433,-0.15314064919948578
1729114209152267000,33.12226708984375,9.87966537475586,-0.03559323772788048,-0.16271193325519562
1729114209190201900,33.160201904296876,9.898808479309082,-0.042771704494953156,-0.1459621787071228
1729114209228136700,33.19813671875,9.891630172729492,-0.05473581701517105,-0.15074782073497772
1729114209266071300,33.2360712890625,9.896415710449219,-0.06430710852146149,-0.1698904037475586
1729114209304006100,33.274006103515624,9.891630172729492,-0.0690927505493164,-0.14356936514377594
1729114209341940700,33.311940673828126,9.88684368133545,-0.08823533356189728,-0.15314064919948578
1729114209379875600,33.34987548828125,9.891630172729492,-0.08344969153404236,-0.13878370821475983
1729114209417810200,33.38781005859375,9.896415710449219,-0.0690927505493164,-0.1339980661869049
1729114209455745000,33.4257451171875,9.910772323608398,-0.07866404205560684,-0.11006984114646912
1729114209493679900,33.46367993164063,9.894022941589355,-0.10498509556055069,-0.1459621787071228
1729114209531614500,33.50161450195313,10.06421184539795,-0.20548364520072937,-0.02632104977965355
1729114209569549300,33.53954931640625,9.946664810180664,-0.06430710852146149,-0.059820566326379776
1729114209607484000,33.57748388671875,9.975378036499023,-0.31106695532798767,-0.2105683982372284
1729114209645418800,33.615418701171876,9.992128372192383,-0.0690927505493164,0.385543555021286
1729114209683353300,33.65335327148438,9.915557861328125,0.13668999075889587,0.8237292170524597
1729114209721288200,33.6912880859375,9.776774406433105,0.18933209776878357,0.771087110042572
1729114209759223000,33.72922314453125,9.889236450195312,0.024227328598499298,0.42382872104644775
1729114209797157600,33.76715771484375,10.045069694519043,-0.24167509377002716,0.1414756327867508
1729114209835092500,33.80509252929688,9.946664810180664,-0.06191428750753403,0.5123631358146667
1729114209873027000,33.84302709960937,10.020842552185059,-0.5335994362831116,-0.2153540402650833
1729114209910962000,33.8809619140625,9.649954795837402,-0.25363919138908386,-0.02392822690308094
1729114209948896500,33.918896484375,9.917950630187988,-0.4043870270252228,-0.20578274130821228
1729114209986831400,33.95683129882813,9.992128372192383,-0.3206382393836975,-0.16749759018421173
1729114210024766200,33.99476611328125,9.721739768981934,-0.3756731450557709,-0.5291129350662231
1729114210062700800,34.03270068359375,10.059426307678223,-0.3086741268634796,-0.1986042857170105
1729114210100635600,34.0706357421875,9.714560508728027,-0.3206382393836975,-0.6056832075119019
1729114210138570200,34.1085703125,9.970592498779297,-0.380458801984787,-0.23449662327766418
1729114210176505000,34.14650512695312,9.956235885620117,-0.2679961323738098,0.19651055335998535
1729114210214440000,34.18443994140625,9.712167739868164,-0.32303106784820557,-0.23210379481315613
1729114210252374500,34.22237451171875,10.030413627624512,-0.2967100143432617,-0.14117653667926788
1729114210290309400,34.26030932617188,9.903594017028809,-0.20069800317287445,0.0023928226437419653
1729114210328244000,34.29824389648437,9.836594581604004,-0.3732803463935852,-0.007178467698395252
1729114210366178800,34.3361787109375,9.86530876159668,-0.27038896083831787,-0.10289137065410614
1729114210404113400,34.37411352539063,9.678668022155762,-0.19112670421600342,-0.0023928226437419653
1729114210442048300,34.41204833984375,9.920343399047852,-0.16959130764007568,0.263509601354599
1729114210479983000,34.44998315429687,9.85813045501709,-0.4666004180908203,0.0933200865983963
1729114210517917700,34.487917724609375,9.920343399047852,-0.3684946894645691,0.06939185410737991
1729114210555852500,34.5258525390625,9.657133102416992,-0.3278166949748993,0.04307080805301666
1729114210593787100,34.563787109375,9.853344917297363,-0.19351953268051147,0.004785645287483931
1729114210631722000,34.60172192382812,9.901201248168945,-0.3900300860404968,0.20608185231685638
1729114210669656600,34.639656494140624,10.052248001098633,-0.4043870270252228,-0.21296121180057526
1729114210707591400,34.67759130859375,9.941879272460938,-0.5048855543136597,-0.46450668573379517
1729114210745526300,34.7155263671875,9.98973560333252,-0.2632105052471161,-0.10289137065410614
1729114210783460900,34.7534609375,9.97298526763916,-0.4713860750198364,-0.3756731450557709
1729114210821395700,34.791395751953125,9.779167175292969,-0.2584248483181,-0.0933200865983963
1729114210859330300,34.829330322265626,9.712167739868164,-0.2679961323738098,0.1701895147562027
1729114210897265200,34.86726513671875,9.63081169128418,-0.17198412120342255,0.33768710494041443
1729114210935200000,34.90519995117187,10.104889869689941,-0.4953143000602722,-0.15074782073497772
1729114210973134600,34.943134521484374,9.99691390991211,-0.4833501875400543,0.004785645287483931
1729114211011069400,34.9810693359375,9.805487632751465,-0.4977070987224579,-0.27038896083831787
1729114211049004000,35.01900415039062,9.87248706817627,-0.4953143000602722,0.05024927482008934
1729114211086939000,35.05693896484375,9.917950630187988,-0.3900300860404968,-0.02153540402650833
1729114211124873700,35.094873779296876,9.86530876159668,-0.5144568681716919,-0.41156548261642456
1729114211162808300,35.13280834960938,9.970592498779297,-0.2560320198535919,0.27308088541030884
1729114211200743200,35.1707431640625,9.96580696105957,-0.4905286431312561,-0.28953152894973755
1729114211238677800,35.208677734375,9.85813045501709,-0.3397808074951172,-0.12203395366668701
1729114211276612600,35.246612548828125,10.083354949951172,-0.5168496966362,-0.16031911969184875
1729114211314547200,35.284547119140626,9.795916557312012,-0.397208571434021,-0.10289137065410614
1729114211352482000,35.32248193359375,9.664311408996582,-0.23449662327766418,0.22522443532943726
1729114211390417000,35.3604169921875,10.073782920837402,-0.5383850932121277,-0.1986042857170105
1729114211428351500,35.3983515625,9.647562026977539,-0.24167509377002716,-0.21296121180057526
1729114211466286300,35.43628637695313,10.068997383117676,-0.5240281820297241,-0.27756741642951965
1729114211504221000,35.47422094726563,9.910772323608398,-0.4091726839542389,0.03349951654672623
1729114211542155800,35.51215576171875,9.953843116760254,-0.5694918036460876,-0.2273181527853012
1729114211580090400,35.55009033203125,10.04985523223877,-0.5216353535652161,0.1534397453069687
1729114211618025200,35.58802514648438,9.795916557312012,-0.4833501875400543,-0.16031911969184875
1729114211655960000,35.6259599609375,9.915557861328125,-0.6556333899497986,-1.4219348430633545
1729114211693894700,35.663894775390624,9.877272605895996,-0.4977070987224579,-2.396411895751953
1729114211731829500,35.70182958984375,9.925128936767578,-0.519242525100708,-2.561516523361206
1729114211769764000,35.73976416015625,9.913165092468262,-0.31345975399017334,-1.3142578601837158
1729114211807699000,35.77769897460937,10.753643989562988,-0.03798605874180794,0.33050861954689026
1729114211845633800,35.8156337890625,9.501599311828613,-0.00687936507165432,-0.2679961323738098
1729114211883568400,35.853568359375,9.932307243347168,-0.1217348501086235,-0.42831525206565857
1729114211921503200,35.89150317382813,9.700203895568848,0.026620151475071907,-0.031106693670153618
1729114211959437800,35.92943774414063,10.100104331970215,-0.11934202909469604,-0.23210379481315613
1729114211997372700,35.96737255859375,9.779167175292969,-0.07148557901382446,-0.20338992774486542
1729114212035307300,36.005307373046875,9.994521141052246,-0.11455638706684113,-0.24167509377002716
1729114212073242000,36.0432421875,9.831809043884277,-0.05712864175438881,-0.1866401731967926
1729114212111177000,36.08117700195312,9.956235885620117,-0.09062815457582474,-0.23688943684101105
1729114212149111600,36.11911157226562,9.84855842590332,-0.07148557901382446,-0.19381862878799438
1729114212187046400,36.15704638671875,9.913165092468262,-0.08823533356189728,-0.21774685382843018
1729114212224981000,36.19498095703125,9.889236450195312,-0.06430710852146149,-0.19621145725250244
1729114212262915800,36.23291577148437,9.908379554748535,-0.07627122104167938,-0.20578274130821228
1729114212300850400,36.27085034179687,9.896415710449219,-0.06669992953538895,-0.20817556977272034
1729114212338785300,36.308785400390626,9.901201248168945,-0.08584251254796982,-0.19621145725250244
1729114212376720100,36.34672021484375,9.891630172729492,-0.0810568705201149,-0.22013968229293823
1729114212414654700,36.38465478515625,9.884450912475586,-0.08584251254796982,-0.20099709928035736
1729114212452589600,36.422589599609374,9.903594017028809,-0.07387840002775192,-0.20817556977272034
1729114212490524400,36.4605244140625,9.891630172729492,-0.0810568705201149,-0.20338992774486542
1729114212528459000,36.498458984375,9.898808479309082,-0.0690927505493164,-0.1866401731967926
1729114212566393900,36.53639379882812,9.894022941589355,-0.08344969153404236,-0.20338992774486542
1729114212604328400,36.57432836914062,9.901201248168945,-0.0690927505493164,-0.20578274130821228
1729114212642263300,36.61226318359375,9.896415710449219,-0.07627122104167938,-0.2105683982372284
1729114212680198000,36.65019799804688,9.891630172729492,-0.08344969153404236,-0.21296121180057526
1729114212718132700,36.6881328125,9.898808479309082,-0.0810568705201149,-0.20099709928035736
1729114212756067600,36.726067626953125,9.889236450195312,-0.07148557901382446,-0.21296121180057526
1729114212794002200,36.764002197265626,9.894022941589355,-0.08823533356189728,-0.21296121180057526
1729114212831937000,36.80193701171875,9.896415710449219,-0.07866404205560684,-0.2105683982372284
1729114212869871600,36.83987158203125,9.901201248168945,-0.07387840002775192,-0.20099709928035736
1729114212907806500,36.877806396484374,9.882058143615723,-0.0810568705201149,-0.20338992774486542
1729114212945741000,36.915740966796875,9.910772323608398,-0.07627122104167938,-0.22013968229293823
1729114212983676000,36.95367602539063,9.908379554748535,-0.07387840002775192,-0.20338992774486542
1729114213021610800,36.99161083984375,9.862915992736816,0.07926224917173386,-0.2273181527853012
1729114213059545300,37.02954541015625,9.915557861328125,0.43609192967414856,-0.16749759018421173
1729114213097480200,37.067480224609376,9.913165092468262,0.859621524810791,-0.26081767678260803
1729114213135414800,37.10541479492188,9.975378036499023,1.20687997341156,-0.16749759018421173
1729114213173349600,37.143349609375,10.011270523071289,1.4413765668869019,-0.27038896083831787
1729114213211284200,37.1812841796875,10.025628089904785,1.7982062101364136,-0.2679961323738098
1729114213249219000,37.219218994140626,9.760024070739746,2.018345832824707,0.019142581149935722
1729114213287154000,37.25715380859375,9.903594017028809,1.8532410860061646,-0.17228323221206665
1729114213325088500,37.29508862304687,9.731310844421387,1.9513468742370605,-0.20817556977272034
1729114213363023400,37.3330234375,9.807881355285645,1.8795621395111084,-0.31824541091918945
1729114213400958000,37.3709580078125,9.604491233825684,1.9609181880950928,-0.2991028428077698
1729114213438892800,37.40889282226563,9.525527954101562,1.7790635824203491,-0.004785645287483931
1729114213476827600,37.44682763671875,10.866106986999512,1.8747764825820923,0.08135596662759781
1729114213514762200,37.48476220703125,9.87966537475586,2.054537296295166,0.35443684458732605
1729114213552697000,37.522697021484376,8.565407752990723,2.767897605895996,0.33050861954689026
1729114213590631700,37.56063159179688,11.177473068237305,1.7742780447006226,-0.2799602448940277
1729114213628566500,37.59856640625,8.931808471679688,2.037787675857544,-0.5075774788856506
1729114213666501400,37.63650146484375,11.766406059265137,1.542174220085144,0.7471588850021362
1729114213704436000,37.67443603515625,10.92592716217041,0.7399803996086121,0.4046861231327057
1729114213742370800,37.71237084960938,7.59571647644043,0.6777670383453369,-0.768395185470581
1729114213780305400,37.75030541992187,12.125329971313477,0.39062830805778503,0.18933209776878357
1729114213818240300,37.788240234375,6.963712215423584,1.6378871202468872,0.09810572862625122
1729114213856174800,37.8261748046875,12.31944751739502,-0.8473583459854126,0.4668995141983032
1729114213894109700,37.86410961914063,7.399505138397217,-0.0690927505493164,-0.34217363595962524
1729114213932044500,37.90204443359375,10.454241752624512,0.0768694281578064,-0.2105683982372284
1729114213969979100,37.939979248046875,10.15035343170166,0.02183450572192669,0.10767702013254166
1729114214007914000,37.9779140625,10.310672760009766,0.2946162819862366,0.10767702013254166
1729114214045848600,38.0158486328125,10.511670112609863,0.1462612897157669,0.24197418987751007
1729114214083783400,38.05378344726562,14.54357624053955,-0.8306085467338562,0.09571290761232376
1729114214121718300,38.09171826171875,7.830512046813965,0.2946162819862366,0.1989033818244934
1729114214159652900,38.12965283203125,9.532706260681152,0.1534397453069687,-0.4812564551830292
1729114214197587700,38.16758764648438,9.195018768310547,0.5964110493659973,-0.39481574296951294
1729114214235522300,38.20552221679687,12.03200912475586,0.06251249462366104,-0.07896314561367035
1729114214273457200,38.24345703125,7.7440714836120605,0.08644071966409683,-0.5171487927436829
1729114214311391700,38.281391845703126,10.667502403259277,0.7782655358314514,0.3496512174606323
1729114214349326600,38.31932666015625,8.740083694458008,0.45284169912338257,0.1295115202665329
1729114214387261400,38.35726147460937,12.067901611328125,-0.6245267391204834,0
1729114214425196000,38.395196044921875,8.982057571411133,-0.23688943684101105,-0.06699903309345245
1729114214463131000,38.433130859375,9.685847282409668,0.3355933725833893,-0.2919243574142456
1729114214501065500,38.4710654296875,9.379266738891602,0.2946162819862366,-0.6296114325523376
1729114214539000300,38.50900024414062,10.313065528869629,-0.638883650302887,-0.23688943684101105
1729114214576935200,38.54693505859375,9.336195945739746,-0.763310432434082,0.22043879330158234
1729114214614869800,38.58486987304688,8.986844062805176,0.01704886183142662,0.019142581149935722
1729114214652804600,38.6228046875,10.159924507141113,0.036191441118717194,-0.23210379481315613
1729114214690739200,38.6607392578125,12.439088821411133,-0.10498509556055069,0.019142581149935722
1729114214728674000,38.698674072265625,8.728119850158691,0.6251249313354492,-0.8712865710258484
1729114214766609000,38.73660888671875,9.910772323608398,-0.6675975322723389,-0.3900300860404968
1729114214804543500,38.77454345703125,9.657133102416992,-0.08823533356189728,0.04785645380616188
1729114214842478300,38.81247827148437,12.065508842468262,-0.1504487246274948,0
1729114214880413000,38.850412841796874,10.566704750061035,0.6658028960227966,-0.11485548317432404
1729114214918347800,38.88834765625,7.368398189544678,-0.10259227454662323,-0.6320042610168457
1729114214956282400,38.92628247070313,9.63081169128418,-0.5479564070701599,0.035892341285943985
1729114214994217200,38.96421728515625,10.588240623474121,-0.35413774847984314,-0.5482555031776428
1729114215032152000,39.002152099609376,9.166305541992188,1.1733803749084473,0.3089732229709625
1729114215070086700,39.04008666992188,8.546265602111816,0.28983065485954285,-0.5123631358146667
1729114215108021500,39.078021484375,10.95703411102295,-0.4713860750198364,-0.47647079825401306
1729114215145956000,39.1159560546875,11.093424797058105,0.06729813665151596,0.4214358925819397
1729114215183891000,39.153890869140625,9.977771759033203,0.5006981492042542,0.17258232831954956
1729114215221825500,39.191825439453126,9.666704177856445,-0.07148557901382446,-0.7420741319656372
1729114215259760400,39.22976049804687,9.08973503112793,-0.4498506486415863,-0.42352959513664246
1729114215297695200,39.2676953125,10.40638542175293,-0.22223339974880219,-0.11485548317432404
1729114215335629800,39.3056298828125,9.556634902954102,0.5437689423561096,0.23718854784965515
1729114215373564700,39.34356469726563,11.021639823913574,-0.1983051747083664,-0.8090731501579285
1729114215411499300,39.38149926757813,12.424731254577637,-0.6317051649093628,0.2874378263950348
1729114215449434000,39.41943408203125,7.641180038452148,0.1414756327867508,-0.8210372924804688
1729114215487369000,39.457368896484375,11.976974487304688,-0.3613162338733673,-0.15553347766399384
1729114215525303600,39.49530346679688,10.286744117736816,0.6777670383453369,0.02871387079358101
1729114215563238400,39.53323828125,9.084949493408203,0.4145565330982208,-0.4740779995918274
1729114215601173000,39.571173095703124,10.126425743103027,-0.20548364520072937,-0.9334999322891235
1729114215639107800,39.60910791015625,8.397910118103027,0.17497515678405762,-0.2105683982372284
1729114215677042700,39.64704272460938,8.728119850158691,-0.6915257573127747,-0.8425726890563965
1729114215714977300,39.68497729492187,8.91954517364502,0.5054838061332703,-0.854536771774292
1729114215752912100,39.722912109375,10.744072914123535,0.20608185231685638,-0.24646073579788208
1729114215790846700,39.7608466796875,12.158828735351562,-0.07866404205560684,0.03349951654672623
1729114215828781600,39.79878149414063,11.318649291992188,0.5389832854270935,-0.7157530784606934
1729114215866716200,39.83671606445313,8.574978828430176,0.9556335210800171,-0.2584248483181
1729114215904651000,39.874651123046874,10.313065528869629,-0.004486542660742998,-0.10767702013254166
1729114215942585900,39.9125859375,8.558229446411133,-0.4977070987224579,-0.734895646572113
1729114215980520400,39.9505205078125,9.905986785888672,0.3089732229709625,-0.490827739238739
1729114216018455300,39.98845532226562,8.213363647460938,0.11515458673238754,0.20608185231685638
1729114216056390000,40.02638989257812,10.061819076538086,-0.5000999569892883,-0.3158525824546814
1729114216094324700,40.06432470703125,10.315458297729492,-0.5072783827781677,-0.4091726839542389
1729114216132259300,40.10225927734375,7.643572807312012,-0.00687936507165432,-0.7420741319656372
1729114216170194200,40.14019409179687,12.091830253601074,0.014656038954854012,-0.4621138870716095
1729114216208129000,40.17812890625,8.77358341217041,0.0649053156375885,-0.35892340540885925
1729114216246063600,40.216063720703126,15.22343635559082,0.012263216078281403,0.03349951654672623
1729114216283998500,40.25399853515625,6.087340831756592,1.1494522094726562,-0.7707880139350891
1729114216321933300,40.29193334960937,10.478170394897461,-0.31345975399017334,-0.15314064919948578
1729114216359868000,40.329867919921874,10.52363395690918,-0.6245267391204834,-0.7564310431480408
1729114216397802800,40.367802734375,6.436992168426514,0.9388837814331055,-0.5338985323905945
1729114216435737300,40.4057373046875,9.666704177856445,0.007477570790797472,0.28983065485954285
1729114216473672200,40.44367211914062,11.177473068237305,-1.0818549394607544,-0.7229315638542175
1729114216511606800,40.48160668945312,13.411172866821289,0.22043879330158234,0.29700911045074463
1729114216549541600,40.519541748046876,4.203291893005371,-0.009272187948226929,-1.0630114078521729
1729114216587476500,40.5574765625,9.891630172729492,-0.46420758962631226,-0.15553347766399384
1729114216625411000,40.5954111328125,10.768000602722168,-0.641276478767395,-0.31824541091918945
1729114216663346000,40.633345947265624,8.44576644897461,0.7256234884262085,-0.363709032535553
1729114216701280500,40.671280517578126,10.226923942565918,0.08404789865016937,-0.09571290761232376
1729114216739215400,40.70921533203125,10.894820213317871,-0.7800601720809937,0.4740779995918274
1729114216777150000,40.74714990234375,13.322339057922363,-0.4977070987224579,-0.26560330390930176
1729114216815084800,40.785084716796874,5.97727108001709,1.2475578784942627,-1.0151549577713013
1729114216853019600,40.82301953125,12.446267127990723,-0.5240281820297241,-0.062213387340307236
1729114216890954200,40.86095434570313,14.004891395568848,-0.672383189201355,0.17736798524856567
1729114216928889000,40.89888916015625,6.257530212402344,1.0058828592300415,-0.9693922996520996
1729114216966823700,40.93682373046875,8.79511833190918,-0.6556333899497986,0.33050861954689026
1729114217004758500,40.974758544921876,8.826225280761719,-1.0770692825317383,-0.11964113265275955
1729114217042693400,41.012693359375,8.51755142211914,-0.4546363055706024,-1.0151549577713013
1729114217080628000,41.0506279296875,8.63479995727539,-0.16719847917556763,-0.4450650215148926
1729114217118562800,41.088562744140624,12.795619010925293,0.10797612369060516,0.004785645287483931
1729114217156497400,41.126497314453125,8.062616348266602,0.01944168470799923,-0.2392822653055191
1729114217194432300,41.16443237304688,10.689038276672363,-0.6460621356964111,-0.06939185410737991
1729114217232367000,41.2023671875,11.079068183898926,-0.5264210104942322,-0.8066803216934204
1729114217270301700,41.2403017578125,8.299505233764648,0.3451646566390991,-0.4621138870716095
1729114217308236500,41.27823657226563,9.05862808227539,0.8165507316589355,0.1869392693042755
1729114217346171100,41.31617114257813,9.525527954101562,-0.5312066078186035,-0.8186444640159607
1729114217384106000,41.35410595703125,11.943474769592285,-0.2967100143432617,-0.521934449672699
1729114217422040600,41.39204052734375,3.5497524738311768,-0.16959130764007568,-0.7516453862190247
1729114217459975400,41.429975341796876,10.320243835449219,-0.3756731450557709,0.43100717663764954
1729114217497910300,41.46791015625,11.581859588623047,-0.2847459018230438,-0.37088751792907715
1729114217535844900,41.50584497070312,10.858928680419922,0.6634100675582886,-0.19621145725250244
1729114217573779700,41.54377978515625,8.124829292297363,0.36191442608833313,-0.10767702013254166
1729114217611714300,41.58171435546875,13.461421966552734,-1.5176477432250977,-0.732502818107605
1729114217649649200,41.61964916992188,8.443373680114746,-1.7641085386276245,-0.4091726839542389
1729114217687584000,41.657583984375,9.882058143615723,-1.6325032711029053,0.3807578980922699
1729114217725518600,41.6955185546875,8.155936241149902,-1.7330018281936646,-0.5147559642791748
1729114217763453400,41.733453369140626,11.660822868347168,-2.3243281841278076,-0.3445664644241333
1729114217801388000,41.77138793945313,9.029914855957031,-1.4793626070022583,-0.1818545162677765
1729114217839323000,41.80932299804687,9.920343399047852,-1.4219348430633545,-0.09571290761232376
1729114217877257700,41.8472578125,8.505587577819824,-1.2326027154922485,-0.701396107673645
1729114217915192300,41.8851923828125,10.650753021240234,-1.3692927360534668,-0.5985047817230225
1729114217953127200,41.92312719726562,9.130413055419922,-1.158425211906433,-0.7205387353897095
1729114217991061800,41.96106176757812,10.90439224243164,-1.6971094608306885,-0.48364928364753723
1729114218028996600,41.99899658203125,9.254839897155762,-2.2597219944000244,-0.062213387340307236
1729114218066931200,42.03693115234375,10.48534870147705,-2.1759731769561768,0.14865410327911377
1729114218104866000,42.07486596679688,9.068199157714844,-1.9004993438720703,-0.5578267574310303
1729114218142801000,42.11280078125,10.332208633422852,-2.0395822525024414,-0.05024927482008934
1729114218180735500,42.150735595703125,9.525527954101562,-1.934298038482666,-0.3326023519039154
1729114218218670300,42.18867041015625,10.152746200561523,-1.8885352611541748,-0.14117653667926788
1729114218256605000,42.22660498046875,9.721739768981934,-1.4291132688522339,-0.5195416212081909
1729114218294539800,42.26453979492187,10.04985523223877,-1.2613166570663452,-0.3086741268634796
1729114218332474600,42.302474609375,9.800702095031738,-0.729810893535614,-0.25363919138908386
1729114218370409200,42.3404091796875,9.937093734741211,-0.37088751792907715,-0.31824541091918945
1729114218408344000,42.37834399414062,9.860523223876953,-0.06430710852146149,-0.33020952343940735
1729114218446278700,42.41627856445312,9.896415710449219,0.263509601354599,-0.1818545162677765
1729114218484213500,42.454213623046876,9.877272605895996,0.40259242057800293,0.06939185410737991
1729114218522148400,42.4921484375,9.896415710449219,0.373878538608551,-0.22013968229293823
1729114218560083000,42.5300830078125,9.870094299316406,0.27786654233932495,-0.1698904037475586
1729114218598017800,42.568017822265624,9.891630172729492,0.22761724889278412,-0.15074782073497772
1729114218635952400,42.605952392578125,9.917950630187988,0.1414756327867508,-0.3613162338733673
1729114218673887200,42.64388720703125,9.898808479309082,0.12472587823867798,-0.15553347766399384
1729114218711821800,42.68182177734375,9.87966537475586,0.08165507018566132,-0.22492532432079315
1729114218749756700,42.71975659179687,9.901201248168945,0.036191441118717194,-0.24646073579788208
1729114218787691500,42.75769140625,9.898808479309082,0.029012974351644516,-0.20817556977272034
1729114218825626000,42.79562622070313,9.896415710449219,-0.011665010824799538,-0.23449662327766418
1729114218863561000,42.83356103515625,9.891630172729492,-0.002093719784170389,-0.22971096634864807
1729114218901495600,42.87149560546875,9.901201248168945,-0.021236300468444824,-0.2105683982372284
1729114218939430400,42.909430419921875,9.889236450195312,-0.023629123345017433,-0.21774685382843018
1729114218977365200,42.947365234375,9.908379554748535,-0.040378883481025696,-0.21296121180057526
1729114219015299800,42.9852998046875,9.882058143615723,0.009870393201708794,-0.15314064919948578
1729114219053234700,43.023234619140624,9.934700965881348,-0.021236300468444824,-0.2153540402650833
1729114219091169300,43.061169189453125,9.877272605895996,0.024227328598499298,-0.07417750358581543
1729114219129104100,43.09910424804688,9.779167175292969,0.13908281922340393,0.12472587823867798
1729114219167039000,43.1370390625,9.637990951538086,-0.011665010824799538,0.17736798524856567
1729114219204973600,43.1749736328125,9.953843116760254,0.08404789865016937,0.4286143481731415
1729114219242908400,43.212908447265626,9.98255729675293,-0.04755735024809837,0.385543555021286
1729114219280843000,43.25084301757813,10.008877754211426,0.20608185231685638,0.8883354067802429
1729114219318777900,43.28877783203125,9.721739768981934,0.16061821579933167,0.8165507316589355
1729114219356712400,43.32671240234375,10.0040922164917,-0.1504487246274948,0.9337990283966064
1729114219394647300,43.364647216796875,9.776774406433105,-0.2273181527853012,1.0007981061935425
1729114219432582100,43.40258203125,10.104889869689941,-0.5048855543136597,0.1701895147562027
1729114219470516700,43.44051684570312,9.963414192199707,-0.44027936458587646,-0.275174617767334
1729114219508451600,43.47845166015625,9.786345481872559,-0.4953143000602722,-0.40677985548973083
1729114219546386200,43.51638623046875,9.829416275024414,-0.31106695532798767,-0.12921242415905
1729114219584321000,43.55432104492188,9.764810562133789,-0.3732803463935852,-0.4331009089946747
1729114219622255900,43.592255859375,10.083354949951172,-0.5838487148284912,-0.8042874932289124
1729114219660190500,43.6301904296875,9.693025588989258,-0.2273181527853012,-0.24885354936122894
1729114219698125300,43.668125244140626,9.767203330993652,-0.42831525206565857,-0.363709032535553
1729114219736060000,43.70605981445313,10.066604614257812,-0.33020952343940735,-0.0023928226437419653
1729114219773994800,43.74399487304687,10.059426307678223,-0.45942193269729614,-0.35413774847984314
1729114219811929600,43.7819296875,9.946664810180664,-0.4498506486415863,-0.42352959513664246
1729114219849864200,43.8198642578125,9.774381637573242,-0.2392822653055191,0.059820566326379776
1729114219887799000,43.85779907226563,9.657133102416992,-0.1504487246274948,0.24915266036987305
1729114219925733600,43.89573364257812,9.84855842590332,-0.30628129839897156,0.10767702013254166
1729114219963668500,43.93366845703125,9.901201248168945,-0.380458801984787,0.36640095710754395
1729114220001603000,43.97160302734375,9.999306678771973,-0.6340979933738708,-0.04546362906694412
1729114220039538000,44.00953784179688,9.84855842590332,-0.3397808074951172,0.20608185231685638
1729114220077472800,44.04747265625,10.097711563110352,-0.5934200286865234,-0.18903298676013947
1729114220115407400,44.085407470703124,9.779167175292969,-0.5862415432929993,-0.062213387340307236
1729114220153342200,44.12334228515625,9.939486503601074,-0.4977070987224579,0.26111677289009094
1729114220191276800,44.16127685546875,9.831809043884277,-0.5455635786056519,-0.17706887423992157
1729114220229211600,44.19921166992187,9.905986785888672,-0.7923234105110168,-0.34217363595962524
1729114220267146500,44.237146484375,9.611669540405273,-0.42352959513664246,-0.035892341285943985
1729114220305081000,44.2750810546875,10.076175689697266,-0.7899305820465088,-0.3613162338733673
1729114220343016000,44.31301586914063,9.82702350616455,-0.32303106784820557,0.9194421172142029
1729114220380950500,44.35095043945312,9.645169258117676,-0.4091726839542389,0.9194421172142029
1729114220418885400,44.388885498046875,10.116853713989258,-1.098604679107666,0.02632104977965355
1729114220456820200,44.4268203125,9.685847282409668,-0.7899305820465088,-0.0023928226437419653
1729114220494754800,44.4647548828125,9.901201248168945,-0.8449655175209045,-0.04785645380616188
1729114220532689700,44.50268969726562,10.04985523223877,-1.0603195428848267,-0.7420741319656372
1729114220570624300,44.540624267578124,9.975378036499023,-0.8090731501579285,-0.30149564146995544
1729114220608559000,44.57855908203125,9.855737686157227,-0.8832506537437439,-0.5123631358146667
1729114220646493700,44.61649365234375,9.8509521484375,-0.8377870321273804,-0.0526420995593071
1729114220684428500,44.65442846679687,9.994521141052246,-0.7082754969596863,-0.16749759018421173
1729114220722363400,44.69236328125,9.963414192199707,-0.727418065071106,-0.2273181527853012
1729114220760298000,44.73029809570313,9.961021423339844,-0.5312066078186035,0.10289137065410614
1729114220798232800,44.76823291015625,9.793523788452148,-0.5742774605751038,-0.08614161610603333
1729114220836167700,44.806167724609374,10.001699447631836,-0.6628118753433228,-0.27038896083831787
1729114220874102300,44.844102294921875,9.781559944152832,-0.37806597352027893,0.18454644083976746
1729114220912037000,44.882037109375,9.905986785888672,-0.9263214468955994,-0.5530411601066589
1729114220949971700,44.9199716796875,9.831809043884277,-0.974177896976471,-0.6894320249557495
1729114220987906600,44.95790649414062,9.838987350463867,-0.4091726839542389,-1.1850453615188599
1729114221025841200,44.995841064453124,10.073782920837402,-0.5144568681716919,-2.3294129371643066
1729114221063776000,45.03377587890625,9.714560508728027,-0.2030908167362213,-1.7165511846542358
1729114221101710800,45.0717109375,9.779167175292969,-0.133698970079422,-1.287936806678772
1729114221139645400,45.1096455078125,10.622038841247559,0.024227328598499298,0.7854440212249756
1729114221177580300,45.147580322265625,10.047462463378906,-0.016450656577944756,-0.02153540402650833
1729114221215515100,45.18551513671875,9.719346046447754,-0.07387840002775192,-0.3613162338733673
1729114221253449700,45.22344970703125,9.779167175292969,-0.021236300468444824,-0.007178467698395252
1729114221291384600,45.26138452148437,9.987342834472656,-0.07627122104167938,-0.035892341285943985
1729114221329319200,45.299319091796875,9.877272605895996,-0.17676977813243866,-0.12442677468061447
1729114221367254000,45.33725390625,9.898808479309082,-0.16719847917556763,-0.12681959569454193
1729114221405188600,45.37518872070312,9.884450912475586,-0.14087744057178497,-0.08135596662759781
1729114221443123500,45.41312353515625,9.920343399047852,-0.11694920808076859,-0.11964113265275955
1729114221481058300,45.451058349609376,9.87248706817627,-0.09062815457582474,-0.08853443711996078
1729114221518993000,45.48899291992188,9.908379554748535,-0.07627122104167938,-0.11006984114646912
1729114221556927700,45.526927734375,9.882058143615723,-0.07627122104167938,-0.1052841991186142
1729114221594862300,45.5648623046875,9.905986785888672,-0.08344969153404236,-0.12442677468061447
1729114221632797200,45.602797119140625,9.882058143615723,-0.09541380405426025,-0.10767702013254166
1729114221670732000,45.64073193359375,9.898808479309082,-0.09780662506818771,-0.11964113265275955
1729114221708666600,45.67866650390625,9.901201248168945,-0.10019944608211517,-0.09810572862625122
1729114221746601500,45.7166015625,9.905986785888672,-0.10737791657447815,-0.11246266216039658
1729114221784536000,45.7545361328125,9.898808479309082,-0.10259227454662323,-0.10767702013254166
1729114221822471000,45.79247094726563,9.889236450195312,-0.0930209830403328,-0.11006984114646912
1729114221860405800,45.83040576171875,9.894022941589355,-0.0930209830403328,-0.11246266216039658
1729114221898340400,45.86834033203125,9.889236450195312,-0.0810568705201149,-0.10767702013254166
1729114221936275200,45.906275146484376,9.898808479309082,-0.09541380405426025,-0.11485548317432404
1729114221974209800,45.94420971679688,9.889236450195312,-0.0930209830403328,-0.11246266216039658
1729114222012144600,45.98214453125,9.905986785888672,-0.08823533356189728,-0.10289137065410614
1729114222050079200,46.020079345703124,9.87966537475586,-0.08344969153404236,-0.11724831163883209
1729114222088014000,46.05801416015625,9.891630172729492,-0.0930209830403328,-0.12203395366668701
1729114222125949000,46.09594897460938,9.903594017028809,-0.09062815457582474,-0.11485548317432404
1729114222163883500,46.13388354492187,9.898808479309082,-0.08823533356189728,-0.11964113265275955
1729114222201818400,46.171818359375,9.894022941589355,-0.0930209830403328,-0.09571290761232376
1729114222239753200,46.209753173828126,9.903594017028809,-0.09541380405426025,-0.11724831163883209
1729114222277687800,46.24768774414063,9.896415710449219,-0.09780662506818771,-0.10049854964017868
1729114222315622700,46.28562255859375,9.905986785888672,-0.09062815457582474,-0.10289137065410614
1729114222353557200,46.32355712890625,9.891630172729492,-0.0930209830403328,-0.11006984114646912
1729114222391492000,46.3614921875,9.891630172729492,-0.07866404205560684,-0.11485548317432404
1729114222429426700,46.3994267578125,9.905986785888672,-0.0930209830403328,-0.11006984114646912
1729114222467361500,46.43736157226562,9.894022941589355,-0.0930209830403328,-0.10289137065410614
1729114222505296400,46.47529638671875,9.903594017028809,-0.0930209830403328,-0.11006984114646912
1729114222543231000,46.51323095703125,9.853344917297363,-0.026021946221590042,-0.11485548317432404
1729114222581165800,46.55116577148438,9.95862865447998,0.263509601354599,-0.12681959569454193
1729114222619100400,46.58910034179687,9.922736167907715,0.617946445941925,-0.11006984114646912
1729114222657035300,46.62703515625,9.829416275024414,1.3624134063720703,-0.04785645380616188
1729114222694970000,46.66497021484375,9.657133102416992,1.7383856773376465,-0.06699903309345245
1729114222732904700,46.70290478515625,9.724132537841797,1.812563180923462,-0.05742774158716202
1729114222770839600,46.74083959960937,10.008877754211426,1.7431713342666626,-0.1818545162677765
1729114222808774100,46.778774169921874,9.364909172058105,2.312962293624878,0.02871387079358101
1729114222846709000,46.816708984375,9.393623352050781,1.9728822708129883,-0.3756731450557709
1729114222884643800,46.85464379882813,9.760024070739746,1.7455641031265259,-0.22492532432079315
1729114222922578400,46.89257836914062,10.504491806030273,1.6474584341049194,-0.19621145725250244
1729114222960513300,46.93051318359375,8.546265602111816,1.9992033243179321,-0.3852444589138031
1729114222998447900,46.96844775390625,10.176674842834473,1.9130617380142212,0.09571290761232376
1729114223036382700,47.0063828125,8.208578109741211,2.095215320587158,-0.3613162338733673
1729114223074317600,47.044317626953124,11.266007423400879,1.1542378664016724,0.27308088541030884
1729114223112252200,47.082252197265625,9.853344917297363,1.7312071323394775,0.23718854784965515
1729114223150187000,47.12018701171875,11.423933982849121,-0.02841476909816265,0.23240290582180023
1729114223188121600,47.15812158203125,9.810274124145508,0.9460622668266296,-0.4549354016780853
1729114223226056400,47.19605639648437,12.01047420501709,-0.4498506486415863,0.21326032280921936
1729114223263991300,47.2339912109375,11.950654029846191,-0.5288137793540955,-0.4450650215148926
1729114223301926000,47.27192578125,6.877570629119873,0.31854450702667236,-0.12203395366668701
1729114223339860700,47.30986083984375,12.97777271270752,-0.8330013751983643,0.49322056770324707
