time,seconds_elapsed,z,y,x
1729114499739879400,0.06887939453125,9.915557861328125,-0.0690927505493164,-0.13160525262355804
1729114499777813800,0.106813720703125,9.874879837036133,-0.05712864175438881,-0.11485548317432404
1729114499815747800,0.144747802734375,9.908379554748535,-0.07148557901382446,-0.1339980661869049
1729114499853682000,0.182681884765625,9.88684368133545,-0.06430710852146149,-0.13160525262355804
1729114499891616300,0.2206162109375,9.901201248168945,-0.07627122104167938,-0.13878370821475983
1729114499929550300,0.25855029296875,9.898808479309082,-0.06191428750753403,-0.11724831163883209
1729114499967484700,0.296484619140625,9.910772323608398,-0.0690927505493164,-0.1339980661869049
1729114500005418800,0.334418701171875,9.889236450195312,-0.07387840002775192,-0.14356936514377594
1729114500043353000,0.37235302734375,9.896415710449219,-0.06669992953538895,-0.14117653667926788
1729114500081287200,0.410287109375,9.913165092468262,-0.07148557901382446,-0.13878370821475983
1729114500119221200,0.44822119140625,9.882058143615723,-0.06430710852146149,-0.14117653667926788
1729114500157155600,0.486155517578125,9.891630172729492,-0.06430710852146149,-0.1339980661869049
1729114500195089700,0.524089599609375,9.901201248168945,-0.0690927505493164,-0.12203395366668701
1729114500233024000,0.56202392578125,9.898808479309082,-0.0690927505493164,-0.12681959569454193
1729114500270958000,0.5999580078125,9.898808479309082,-0.06191428750753403,-0.13639089465141296
1729114500308892400,0.637892333984375,9.898808479309082,-0.07148557901382446,-0.12203395366668701
1729114500346826500,0.675826416015625,9.891630172729492,-0.07387840002775192,-0.14356936514377594
1729114500384760600,0.713760498046875,9.901201248168945,-0.07627122104167938,-0.13160525262355804
1729114500422695000,0.75169482421875,9.901201248168945,-0.07627122104167938,-0.13160525262355804
1729114500460629000,0.78962890625,9.889236450195312,-0.08344969153404236,-0.14356936514377594
1729114500498563300,0.827563232421875,9.894022941589355,-0.06191428750753403,-0.13639089465141296
1729114500536497400,0.865497314453125,9.901201248168945,-0.06191428750753403,-0.12681959569454193
1729114500574431700,0.903431640625,9.891630172729492,-0.06430710852146149,-0.12681959569454193
1729114500612365800,0.94136572265625,9.898808479309082,-0.07148557901382446,-0.15074782073497772
1729114500650300000,0.9792998046875,9.905986785888672,-0.05712864175438881,-0.10767702013254166
1729114500688234200,1.017234130859375,9.894022941589355,-0.06669992953538895,-0.12681959569454193
1729114500726168300,1.055168212890625,9.898808479309082,-0.07866404205560684,-0.15074782073497772
1729114500764102700,1.0931025390625,9.908379554748535,-0.07387840002775192,-0.1339980661869049
1729114500802036700,1.13103662109375,9.901201248168945,-0.07148557901382446,-0.15553347766399384
1729114500839970800,1.168970703125,9.903594017028809,-0.07148557901382446,-0.1339980661869049
1729114500877905200,1.2069052734375,9.87966537475586,-0.06191428750753403,-0.13878370821475983
1729114500915839200,1.244839111328125,9.889236450195312,-0.07866404205560684,-0.14835500717163086
1729114500953773600,1.282773681640625,9.894022941589355,-0.07387840002775192,-0.14356936514377594
1729114500991707600,1.320707763671875,9.903594017028809,-0.0690927505493164,-0.14356936514377594
1729114501029641700,1.358641845703125,9.891630172729492,-0.0690927505493164,-0.13878370821475983
1729114501067576000,1.396576171875,9.889236450195312,-0.06669992953538895,-0.14356936514377594
1729114501105510100,1.43451025390625,9.913165092468262,-0.07866404205560684,-0.14835500717163086
1729114501143444500,1.472444580078125,9.884450912475586,-0.07148557901382446,-0.14117653667926788
1729114501181378600,1.510378662109375,9.908379554748535,-0.06430710852146149,-0.15074782073497772
1729114501219313000,1.54831298828125,9.898808479309082,-0.07148557901382446,-0.13639089465141296
1729114501257247000,1.5862470703125,9.894022941589355,-0.07387840002775192,-0.12921242415905
1729114501295181000,1.62418115234375,9.894022941589355,-0.06430710852146149,-0.14117653667926788
1729114501333115400,1.662115478515625,9.910772323608398,-0.06669992953538895,-0.14835500717163086
1729114501371049500,1.700049560546875,9.896415710449219,-0.07627122104167938,-0.1339980661869049
1729114501408983800,1.73798388671875,9.913165092468262,-0.07387840002775192,-0.1339980661869049
1729114501446918000,1.77591796875,9.896415710449219,-0.0690927505493164,-0.13639089465141296
1729114501484852000,1.81385205078125,9.901201248168945,-0.0690927505493164,-0.12681959569454193
1729114501522786300,1.851786376953125,9.901201248168945,-0.07148557901382446,-0.14117653667926788
1729114501560720400,1.889720458984375,9.891630172729492,-0.0690927505493164,-0.12442677468061447
1729114501598654700,1.92765478515625,9.896415710449219,-0.06430710852146149,-0.12921242415905
1729114501636588800,1.9655888671875,9.903594017028809,-0.06191428750753403,-0.12442677468061447
1729114501674523100,2.003523193359375,9.891630172729492,-0.07866404205560684,-0.1579262912273407
1729114501712457200,2.041457275390625,9.898808479309082,-0.0690927505493164,-0.1339980661869049
1729114501750391300,2.079391357421875,9.905986785888672,-0.0690927505493164,-0.1459621787071228
1729114501788325600,2.11732568359375,9.896415710449219,-0.06669992953538895,-0.1459621787071228
1729114501826259700,2.155259765625,9.891630172729492,-0.0810568705201149,-0.14356936514377594
1729114501864194000,2.193194091796875,9.896415710449219,-0.07387840002775192,-0.13639089465141296
1729114501902128000,2.231128173828125,9.894022941589355,-0.0690927505493164,-0.1459621787071228
1729114501940062500,2.2690625,9.896415710449219,-0.07387840002775192,-0.12442677468061447
1729114501977996500,2.30699658203125,9.894022941589355,-0.05712864175438881,-0.12681959569454193
1729114502015930600,2.3449306640625,9.896415710449219,-0.06669992953538895,-0.13160525262355804
1729114502053865000,2.382864990234375,9.88684368133545,-0.0690927505493164,-0.12203395366668701
1729114502091799000,2.420799072265625,9.903594017028809,-0.06191428750753403,-0.12681959569454193
1729114502129733400,2.4587333984375,9.889236450195312,-0.06669992953538895,-0.13878370821475983
1729114502167667500,2.49666748046875,9.896415710449219,-0.05712864175438881,-0.13639089465141296
1729114502205601800,2.534601806640625,9.882058143615723,-0.07387840002775192,-0.12203395366668701
1729114502243536000,2.572535888671875,9.915557861328125,-0.05712864175438881,-0.14117653667926788
1729114502281470000,2.610469970703125,9.896415710449219,-0.07387840002775192,-0.1339980661869049
1729114502319404300,2.648404296875,9.87966537475586,-0.07866404205560684,-0.14117653667926788
1729114502357338400,2.68633837890625,9.910772323608398,-0.06430710852146149,-0.12681959569454193
1729114502395272400,2.7242724609375,9.891630172729492,-0.07148557901382446,-0.13878370821475983
1729114502433206800,2.762206787109375,9.889236450195312,-0.06191428750753403,-0.12442677468061447
1729114502471140900,2.800140869140625,9.88684368133545,-0.0690927505493164,-0.13160525262355804
1729114502509075200,2.8380751953125,9.901201248168945,-0.07387840002775192,-0.14117653667926788
1729114502547009300,2.87600927734375,9.894022941589355,-0.0690927505493164,-0.14835500717163086
1729114502584943600,2.913943603515625,9.903594017028809,-0.07148557901382446,-0.1339980661869049
1729114502622877700,2.951877685546875,9.889236450195312,-0.0690927505493164,-0.13639089465141296
1729114502660811800,2.989811767578125,9.896415710449219,-0.0690927505493164,-0.12203395366668701
1729114502698746000,3.02774609375,9.87966537475586,-0.0690927505493164,-0.13639089465141296
1729114502736680200,3.06568017578125,9.913165092468262,-0.06191428750753403,-0.13160525262355804
1729114502774614500,3.103614501953125,9.87966537475586,-0.06669992953538895,-0.1579262912273407
1729114502812548600,3.141548583984375,9.889236450195312,-0.06430710852146149,-0.14356936514377594
1729114502850483000,3.17948291015625,9.905986785888672,-0.07387840002775192,-0.1339980661869049
1729114502888417000,3.2174169921875,9.894022941589355,-0.06430710852146149,-0.12681959569454193
1729114502926351000,3.25535107421875,9.898808479309082,-0.06191428750753403,-0.13160525262355804
1729114502964285400,3.293285400390625,9.896415710449219,-0.05712864175438881,-0.11006984114646912
1729114503002219500,3.331219482421875,9.884450912475586,-0.06669992953538895,-0.12921242415905
1729114503040153900,3.36915380859375,9.901201248168945,-0.07148557901382446,-0.14117653667926788
1729114503078088000,3.407087890625,9.896415710449219,-0.07387840002775192,-0.14356936514377594
1729114503116022300,3.445022216796875,9.88684368133545,-0.07387840002775192,-0.12681959569454193
1729114503153956400,3.482956298828125,9.896415710449219,-0.07866404205560684,-0.13160525262355804
1729114503191890400,3.520890380859375,9.896415710449219,-0.0690927505493164,-0.12203395366668701
1729114503229824800,3.55882470703125,9.898808479309082,-0.07148557901382446,-0.13160525262355804
1729114503267758800,3.5967587890625,9.874879837036133,-0.06191428750753403,-0.11724831163883209
1729114503305693200,3.634693115234375,9.908379554748535,-0.07627122104167938,-0.13160525262355804
1729114503343627300,3.672627197265625,9.87966537475586,-0.07866404205560684,-0.14356936514377594
1729114503381561300,3.710561279296875,9.891630172729492,-0.06669992953538895,-0.13639089465141296
1729114503419495700,3.74849560546875,9.88684368133545,-0.06669992953538895,-0.13160525262355804
1729114503457429800,3.7864296875,9.908379554748535,-0.06669992953538895,-0.14356936514377594
1729114503495363800,3.82436376953125,9.877272605895996,-0.0690927505493164,-0.13160525262355804
1729114503533298200,3.862298095703125,9.898808479309082,-0.06191428750753403,-0.12921242415905
1729114503571232300,3.900232177734375,9.898808479309082,-0.06191428750753403,-0.12203395366668701
1729114503609166600,3.93816650390625,9.891630172729492,-0.07148557901382446,-0.13160525262355804
1729114503647100700,3.9761005859375,9.891630172729492,-0.05712864175438881,-0.11964113265275955
1729114503685035000,4.014034912109375,9.889236450195312,-0.06191428750753403,-0.1339980661869049
1729114503722969000,4.051968994140625,9.891630172729492,-0.06191428750753403,-0.11485548317432404
1729114503760903200,4.089903076171875,9.884450912475586,-0.06430710852146149,-0.12921242415905
1729114503798837500,4.12783740234375,9.896415710449219,-0.0690927505493164,-0.12442677468061447
1729114503836771600,4.165771484375,9.891630172729492,-0.06430710852146149,-0.1339980661869049
1729114503874706000,4.203705810546875,9.896415710449219,-0.06191428750753403,-0.1339980661869049
1729114503912640000,4.241639892578125,9.877272605895996,-0.08344969153404236,-0.12203395366668701
1729114503950574300,4.27957421875,9.891630172729492,-0.05952146276831627,-0.13160525262355804
1729114503988508400,4.31750830078125,9.896415710449219,-0.07148557901382446,-0.14356936514377594
1729114504026442500,4.3554423828125,9.88684368133545,-0.06430710852146149,-0.13639089465141296
1729114504064376800,4.393376953125,9.908379554748535,-0.07148557901382446,-0.12921242415905
1729114504102311000,4.431310791015625,9.891630172729492,-0.07866404205560684,-0.1339980661869049
1729114504140245200,4.469245361328125,9.910772323608398,-0.06430710852146149,-0.11964113265275955
1729114504178179300,4.507179443359375,9.882058143615723,-0.07387840002775192,-0.15074782073497772
1729114504216113400,4.545113525390625,9.901201248168945,-0.06669992953538895,-0.12442677468061447
1729114504254047700,4.5830478515625,9.87966537475586,-0.0690927505493164,-0.13878370821475983
1729114504291981800,4.62098193359375,9.901201248168945,-0.06430710852146149,-0.14117653667926788
1729114504329916200,4.658916259765625,9.88684368133545,-0.07148557901382446,-0.12921242415905
1729114504367850200,4.696850341796875,9.894022941589355,-0.05473581701517105,-0.1339980661869049
1729114504405784300,4.734784423828125,9.901201248168945,-0.06430710852146149,-0.13160525262355804
1729114504443718700,4.77271875,9.901201248168945,-0.07627122104167938,-0.1459621787071228
1729114504481652700,4.81065283203125,9.891630172729492,-0.06191428750753403,-0.1459621787071228
1729114504519587000,4.848587158203125,9.894022941589355,-0.07866404205560684,-0.1339980661869049
1729114504557521200,4.886521240234375,9.903594017028809,-0.06430710852146149,-0.14356936514377594
1729114504595455500,4.92445556640625,9.894022941589355,-0.06430710852146149,-0.12921242415905
1729114504633389600,4.9623896484375,9.894022941589355,-0.06669992953538895,-0.12681959569454193
1729114504671323600,5.00032373046875,9.905986785888672,-0.05473581701517105,-0.1339980661869049
1729114504709258000,5.038258056640625,9.891630172729492,-0.0690927505493164,-0.13160525262355804
1729114504747192000,5.076192138671875,9.901201248168945,-0.06430710852146149,-0.12921242415905
1729114504785126400,5.11412646484375,9.884450912475586,-0.07627122104167938,-0.11964113265275955
1729114504823060500,5.152060546875,9.894022941589355,-0.07627122104167938,-0.13160525262355804
1729114504860994800,5.189994873046875,9.908379554748535,-0.06669992953538895,-0.13878370821475983
1729114504898929000,5.227928955078125,9.88684368133545,-0.0690927505493164,-0.13878370821475983
1729114504936863000,5.265863037109375,9.901201248168945,-0.06430710852146149,-0.1459621787071228
1729114504974797300,5.30379736328125,9.884450912475586,-0.07627122104167938,-0.13878370821475983
1729114505012731400,5.3417314453125,9.922736167907715,-0.07148557901382446,-0.13639089465141296
1729114505050665700,5.379665771484375,9.877272605895996,-0.06669992953538895,-0.14117653667926788
1729114505088599800,5.417599853515625,9.882058143615723,-0.05473581701517105,-0.13160525262355804
1729114505126534000,5.455533935546875,9.889236450195312,-0.0690927505493164,-0.12921242415905
1729114505164468200,5.49346826171875,9.898808479309082,-0.07148557901382446,-0.13160525262355804
1729114505202402300,5.53140234375,9.882058143615723,-0.07148557901382446,-0.12203395366668701
1729114505240336600,5.569336669921875,9.905986785888672,-0.06191428750753403,-0.13160525262355804
1729114505278270700,5.607270751953125,9.898808479309082,-0.08344969153404236,-0.14117653667926788
1729114505316204800,5.645204833984375,9.898808479309082,-0.07866404205560684,-0.13639089465141296
1729114505354139100,5.68313916015625,9.901201248168945,-0.07627122104167938,-0.12921242415905
1729114505392073200,5.7210732421875,9.882058143615723,-0.0690927505493164,-0.1339980661869049
1729114505430007600,5.759007568359375,9.889236450195312,-0.07387840002775192,-0.1339980661869049
1729114505467941600,5.796941650390625,9.896415710449219,-0.0690927505493164,-0.1459621787071228
1729114505505876000,5.8348759765625,9.901201248168945,-0.0690927505493164,-0.1339980661869049
1729114505543810000,5.87281005859375,9.884450912475586,-0.05712864175438881,-0.11964113265275955
1729114505581744000,5.910744140625,9.894022941589355,-0.0690927505493164,-0.13639089465141296
1729114505619678500,5.948678466796875,9.889236450195312,-0.06669992953538895,-0.14117653667926788
1729114505657612500,5.986612548828125,9.901201248168945,-0.07866404205560684,-0.15314064919948578
1729114505695547000,6.024546875,9.910772323608398,-0.07148557901382446,-0.13878370821475983
1729114505733481000,6.06248095703125,9.891630172729492,-0.07866404205560684,-0.12921242415905
1729114505771415000,6.1004150390625,9.898808479309082,-0.07627122104167938,-0.14117653667926788
1729114505809349400,6.138349365234375,9.894022941589355,-0.0810568705201149,-0.15074782073497772
1729114505847283500,6.176283447265625,9.905986785888672,-0.0690927505493164,-0.1339980661869049
1729114505885217800,6.2142177734375,9.894022941589355,-0.07148557901382446,-0.13160525262355804
1729114505923152000,6.25215185546875,9.87966537475586,-0.05712864175438881,-0.12203395366668701
1729114505961086000,6.2900859375,9.913165092468262,-0.06430710852146149,-0.10767702013254166
1729114505999020300,6.328020263671875,9.901201248168945,-0.06669992953538895,-0.1459621787071228
1729114506036954400,6.365954345703125,9.882058143615723,-0.0690927505493164,-0.14356936514377594
1729114506074888700,6.403888671875,9.896415710449219,-0.07148557901382446,-0.12681959569454193
1729114506112822800,6.44182275390625,9.901201248168945,-0.06430710852146149,-0.11246266216039658
1729114506150756900,6.4797568359375,9.894022941589355,-0.07148557901382446,-0.12921242415905
1729114506188691200,6.517691162109375,9.891630172729492,-0.05473581701517105,-0.13160525262355804
1729114506226625300,6.555625244140625,9.905986785888672,-0.06669992953538895,-0.12442677468061447
1729114506264559600,6.5935595703125,9.889236450195312,-0.0690927505493164,-0.13878370821475983
1729114506302493700,6.63149365234375,9.896415710449219,-0.06430710852146149,-0.1339980661869049
1729114506340428000,6.669427978515625,9.901201248168945,-0.06430710852146149,-0.13878370821475983
1729114506378362000,6.707362060546875,9.877272605895996,-0.0690927505493164,-0.12681959569454193
1729114506416296200,6.745296142578125,9.903594017028809,-0.07148557901382446,-0.13639089465141296
1729114506454230500,6.78323046875,9.896415710449219,-0.07627122104167938,-0.13878370821475983
1729114506492164600,6.82116455078125,9.913165092468262,-0.07387840002775192,-0.13878370821475983
1729114506530099000,6.859098876953125,9.889236450195312,-0.07627122104167938,-0.14117653667926788
1729114506568033000,6.897032958984375,9.905986785888672,-0.07387840002775192,-0.1339980661869049
1729114506605967000,6.934967041015625,9.882058143615723,-0.07387840002775192,-0.14117653667926788
1729114506643901400,6.9729013671875,9.891630172729492,-0.06669992953538895,-0.12681959569454193
1729114506681835500,7.01083544921875,9.910772323608398,-0.0690927505493164,-0.1339980661869049
1729114506719769900,7.048769775390625,9.894022941589355,-0.07148557901382446,-0.1459621787071228
1729114506757704000,7.086703857421875,9.898808479309082,-0.07148557901382446,-0.1459621787071228
1729114506795638000,7.124637939453125,9.891630172729492,-0.07148557901382446,-0.1339980661869049
1729114506833572400,7.162572265625,9.891630172729492,-0.07148557901382446,-0.1339980661869049
1729114506871506400,7.20050634765625,9.910772323608398,-0.05234299600124359,-0.14117653667926788
1729114506909440800,7.238440673828125,9.882058143615723,-0.07387840002775192,-0.14356936514377594
1729114506947374800,7.276374755859375,9.898808479309082,-0.07387840002775192,-0.12203395366668701
1729114506985309200,7.31430908203125,9.891630172729492,-0.07148557901382446,-0.13639089465141296
1729114507023243300,7.3522431640625,9.913165092468262,-0.06191428750753403,-0.12203395366668701
1729114507061177300,7.39017724609375,9.896415710449219,-0.07148557901382446,-0.14835500717163086
1729114507099111700,7.428111572265625,9.898808479309082,-0.07387840002775192,-0.15074782073497772
1729114507137045800,7.466045654296875,9.915557861328125,-0.06191428750753403,-0.11246266216039658
1729114507174980000,7.50397998046875,9.884450912475586,-0.05952146276831627,-0.11246266216039658
1729114507212914200,7.5419140625,9.88684368133545,-0.06669992953538895,-0.13639089465141296
1729114507250848300,7.57984814453125,9.910772323608398,-0.06669992953538895,-0.12203395366668701
1729114507288782600,7.617782470703125,9.894022941589355,-0.0690927505493164,-0.12442677468061447
1729114507326716700,7.655716552734375,9.891630172729492,-0.07148557901382446,-0.13639089465141296
1729114507364651000,7.693651123046875,9.901201248168945,-0.07627122104167938,-0.15314064919948578
1729114507402585000,7.731585205078125,9.898808479309082,-0.07627122104167938,-0.13878370821475983
1729114507440519200,7.769519287109375,9.896415710449219,-0.06430710852146149,-0.12442677468061447
1729114507478453500,7.80745361328125,9.903594017028809,-0.07387840002775192,-0.12921242415905
1729114507516387600,7.8453876953125,9.896415710449219,-0.07866404205560684,-0.12442677468061447
1729114507554322000,7.883322021484375,9.903594017028809,-0.06669992953538895,-0.12681959569454193
1729114507592256000,7.921256103515625,9.884450912475586,-0.06430710852146149,-0.12681959569454193
1729114507630190300,7.9591904296875,9.908379554748535,-0.07627122104167938,-0.13878370821475983
1729114507668124400,7.99712451171875,9.901201248168945,-0.06669992953538895,-0.13160525262355804
1729114507706058500,8.03505859375,9.901201248168945,-0.07866404205560684,-0.1339980661869049
1729114507743992800,8.072992919921875,9.894022941589355,-0.05712864175438881,-0.11724831163883209
1729114507781927000,8.110927001953126,9.894022941589355,-0.07627122104167938,-0.13639089465141296
1729114507819861200,8.148861328125,9.910772323608398,-0.0690927505493164,-0.12442677468061447
1729114507857795300,8.18679541015625,9.882058143615723,-0.07148557901382446,-0.14356936514377594
1729114507895729700,8.224729736328126,9.891630172729492,-0.06669992953538895,-0.1339980661869049
1729114507933663700,8.262663818359375,9.901201248168945,-0.0690927505493164,-0.13878370821475983
1729114507971597800,8.300597900390626,9.88684368133545,-0.06669992953538895,-0.14117653667926788
1729114508009532200,8.3385322265625,9.903594017028809,0.11036894470453262,-0.15314064919948578
1729114508047466200,8.37646630859375,9.87966537475586,0.5796613097190857,-0.11246266216039658
1729114508085400300,8.414400390625,9.939486503601074,0.8237292170524597,-0.19621145725250244
1729114508123334700,8.452334716796875,9.884450912475586,1.1470593214035034,0.08614161610603333
1729114508161268700,8.490268798828126,10.243673324584961,1.084846019744873,-0.08135596662759781
1729114508199203000,8.528203125,9.884450912475586,1.2643076181411743,-0.18903298676013947
1729114508237137200,8.56613720703125,10.068997383117676,1.2954143285751343,-0.04546362906694412
1729114508275071500,8.604071533203125,9.963414192199707,1.3695918321609497,-0.062213387340307236
1729114508313005600,8.642005615234375,10.066604614257812,1.352842092514038,0.02871387079358101
1729114508350939600,8.679939697265626,9.843772888183594,1.7431713342666626,0.3520440459251404
1729114508388874000,8.7178740234375,9.937093734741211,1.6091731786727905,-0.4956133961677551
1729114508426808000,8.75580810546875,10.327422142028809,1.8532410860061646,0.035892341285943985
1729114508464742400,8.793742431640625,9.544670104980469,1.5254244804382324,-0.3445664644241333
1729114508502676500,8.831676513671875,10.554740905761719,1.8221344947814941,0.4453641176223755
1729114508540610600,8.869610595703126,9.18305492401123,1.8891334533691406,-0.26560330390930176
1729114508578545000,8.907544921875,10.475777626037598,1.4895321130752563,-0.2679961323738098
1729114508616479000,8.94547900390625,9.767203330993652,2.133500576019287,-0.1579262912273407
1729114508654413300,8.983413330078125,11.270792961120605,2.109572172164917,0.6897311210632324
1729114508692347400,9.021347412109375,11.218151092529297,1.410269856452942,-0.24646073579788208
1729114508730281700,9.05928173828125,7.617251873016357,2.344068765640259,0.3233301639556885
1729114508768215800,9.0972158203125,15.106188774108887,0.9460622668266296,-0.01196411345154047
1729114508806150000,9.13514990234375,13.039985656738281,1.0226325988769531,-0.2919243574142456
1729114508844084200,9.173084228515625,7.732107162475586,2.1215364933013916,0.12711870670318604
1729114508882018300,9.211018310546875,8.349754333496094,1.2403794527053833,-0.47647079825401306
1729114508919952600,9.24895263671875,8.819046974182129,1.6091731786727905,-0.6511468887329102
1729114508957886700,9.28688671875,10.854142189025879,1.7790635824203491,-0.48364928364753723
1729114508995820800,9.32482080078125,9.673882484436035,1.3073785305023193,-0.4378865361213684
1729114509033755100,9.362755126953125,10.052248001098633,0.7830511927604675,-0.2991028428077698
1729114509071689200,9.400689208984375,9.72652530670166,0.06729813665151596,-0.040677983313798904
1729114509109623600,9.43862353515625,7.763214111328125,-0.3086741268634796,-1.1994023323059082
1729114509147557600,9.4765576171875,13.72941780090332,0.20608185231685638,-0.7707880139350891
1729114509185491700,9.51449169921875,9.707382202148438,0.17258232831954956,-0.524327278137207
1729114509223426000,9.552426025390625,8.737690925598145,0.47198426723480225,-0.6056832075119019
1729114509261360000,9.590360107421875,12.692728042602539,1.312164068222046,-1.134796142578125
1729114509299294500,9.62829443359375,7.648358345031738,1.3313066959381104,-0.5171487927436829
1729114509337228500,9.666228515625,12.795619010925293,-0.3206382393836975,-0.4139583110809326
1729114509375163000,9.704162841796874,13.712668418884277,0.07926224917173386,-1.409970760345459
1729114509413097000,9.742096923828125,5.113162994384766,1.817348837852478,-1.7907286882400513
1729114509451031000,9.780031005859374,12.913166046142578,-0.2799602448940277,-1.0773683786392212
1729114509488965400,9.81796533203125,7.0857462882995605,0.5222335457801819,-0.39960137009620667
1729114509526899500,9.8558994140625,12.154043197631836,0.5389832854270935,-0.42352959513664246
1729114509564833800,9.893833740234374,9.352945327758789,-0.6771687865257263,-0.6894320249557495
1729114509602768000,9.931767822265625,11.330613136291504,0.9388837814331055,-0.5362913608551025
1729114509640702200,9.9697021484375,11.356934547424316,1.6187444925308228,0.10289137065410614
1729114509678636300,10.00763623046875,9.467801094055176,-1.9821544885635376,-0.8186444640159607
1729114509716570400,10.0455703125,14.507384300231934,-0.21744775772094727,0.9625129103660583
1729114509754504700,10.083504638671876,11.732906341552734,0.6849454641342163,-0.2679961323738098
1729114509792438800,10.121438720703125,11.237293243408203,1.0920244455337524,-1.5056836605072021
1729114509830373000,10.159373046875,14.40449333190918,1.0704890489578247,-0.27038896083831787
1729114509868307200,10.19730712890625,11.256436347961426,0.20129621028900146,-0.3565305769443512
1729114509906241500,10.235241455078125,10.66989517211914,-0.7106683254241943,0.1582254022359848
1729114509944175600,10.273175537109376,12.882060050964355,-0.12652049958705902,0.11006984114646912
1729114509982109700,10.311109619140625,5.017449855804443,1.170987606048584,-0.7133602499961853
1729114510020044000,10.3490439453125,10.827821731567383,-0.9789635539054871,-0.7396813035011292
1729114510057978000,10.38697802734375,8.558229446411133,0.005084747914224863,-0.2512463629245758
1729114510095912400,10.424912353515625,9.467801094055176,0.3595215976238251,-1.6328023672103882
1729114510133846500,10.462846435546876,11.325827598571777,-0.5455635786056519,1.0151549577713013
1729114510171780600,10.500780517578125,10.327422142028809,0.20608185231685638,-0.643968403339386
1729114510209715000,10.53871484375,9.161520004272461,-0.23449662327766418,-0.8090731501579285
1729114510247649000,10.57664892578125,10.631609916687012,-0.016450656577944756,0.6607181429862976
1729114510285583400,10.614583251953125,12.656835556030273,0.43130627274513245,0.8165507316589355
1729114510323517400,10.652517333984376,11.464611053466797,0.4217349886894226,-0.5171487927436829
1729114510361451500,10.690451416015625,9.570991516113281,0.2994019389152527,0.1869392693042755
1729114510399385900,10.7283857421875,8.723334312438965,-0.2392822653055191,0.11276176571846008
1729114510437320000,10.76631982421875,8.953344345092773,-0.7537391185760498,0.15583257377147675
1729114510475254300,10.804254150390625,8.608478546142578,-0.1743769496679306,0.9266205430030823
1729114510513188400,10.842188232421876,8.665905952453613,0.031405795365571976,-0.91914302110672
1729114510551122700,10.880122802734375,12.501301765441895,0.3690928816795349,1.0295119285583496
1729114510589056800,10.918056884765624,10.248459815979004,-0.33499518036842346,0.3089732229709625
1729114510626990800,10.955990966796875,10.858928680419922,-1.1871391534805298,0.33529427647590637
1729114510664925200,10.99392529296875,6.209673881530762,-0.1983051747083664,0.2587239444255829
1729114510702859300,11.031859375,9.882058143615723,0.06251249462366104,-0.42352959513664246
1729114510740793600,11.069793701171875,11.294720649719238,0.34277185797691345,0.7591229677200317
1729114510778727700,11.107727783203124,10.05703353881836,-0.021236300468444824,0.6152545213699341
1729114510816661800,11.145661865234375,11.153244972229004,-0.8832506537437439,-0.009571290574967861
1729114510854596000,11.18359619140625,8.900403022766113,-0.10259227454662323,0.3400799036026001
1729114510892530200,11.2215302734375,8.991629600524902,0.04576273262500763,0.26111677289009094
1729114510930464500,11.259464599609375,10.102497100830078,0.1869392693042755,-0.6798607110977173
1729114510968398600,11.297398681640624,8.89801025390625,0.6681957244873047,0.4453641176223755
1729114511006333000,11.3353330078125,10.710573196411133,0.4408775866031647,-0.46450668573379517
1729114511044267000,11.37326708984375,7.813762187957764,-0.5910272002220154,0.06939185410737991
1729114511082201000,11.411201171875,7.617251873016357,-0.35892340540885925,0.47168517112731934
1729114511120135400,11.449135498046875,8.632407188415527,0.05054837837815285,0.23718854784965515
1729114511158069500,11.487069580078124,10.382457733154297,-0.33020952343940735,0.23718854784965515
1729114511196003800,11.52500390625,12.790833473205566,0.1821536272764206,0.6849454641342163
1729114511233938000,11.56293798828125,9.99691390991211,-0.4713860750198364,-0.26081767678260803
1729114511271872300,11.600872314453126,8.842975616455078,-1.5439687967300415,0.2108674943447113
1729114511309806300,11.638806396484375,10.269994735717773,-1.1129616498947144,-0.1818545162677765
1729114511347740400,11.676740478515624,10.176674842834473,-1.8813568353652954,0.737587571144104
1729114511385674800,11.7146748046875,11.672786712646484,-2.1903300285339355,-0.15314064919948578
1729114511423608800,11.75260888671875,7.260721206665039,-2.3697917461395264,-0.03349951654672623
1729114511461543200,11.790543212890626,9.805487632751465,-2.08504581451416,-0.23449662327766418
1729114511499477200,11.828477294921875,9.367302894592285,-2.3003997802734375,-0.035892341285943985
1729114511537411600,11.86641162109375,10.456634521484375,-1.8095721006393433,0.36640095710754395
1729114511575345700,11.904345703125,9.580562591552734,-2.3650059700012207,-0.12681959569454193
1729114511613279700,11.94227978515625,10.937891006469727,-2.7529425621032715,-1.0606186389923096
1729114511651214000,11.980214111328126,8.297112464904785,-1.709073543548584,-0.30628129839897156
1729114511689148200,12.018148193359375,13.114163398742676,-2.168794631958008,-0.02871387079358101
1729114511727082500,12.05608251953125,8.756834030151367,-1.74496591091156,-0.3397808074951172
1729114511765016600,12.0940166015625,9.202198028564453,-1.0842477083206177,-0.4331009089946747
1729114511802951000,12.131950927734374,10.51645565032959,-1.7880367040634155,-0.02153540402650833
1729114511840885000,12.169885009765625,9.99691390991211,-1.7114664316177368,0.0933200865983963
1729114511878819000,12.207819091796875,9.254839897155762,-2.4343979358673096,-0.349352091550827
1729114511916753400,12.24575341796875,9.743274688720703,-2.3961126804351807,-0.4860421121120453
1729114511954687500,12.2836875,10.109675407409668,-2.6141586303710938,-0.2871387302875519
1729114511992621800,12.321621826171874,9.4390869140625,-2.4343979358673096,-0.5147559642791748
1729114512030556000,12.359555908203125,10.200602531433105,-2.482553482055664,-0.22971096634864807
1729114512068490200,12.397490234375,9.62363338470459,-2.357827663421631,-0.2967100143432617
1729114512106424300,12.43542431640625,10.0040922164917,-2.5112674236297607,-0.5745765566825867
1729114512144358400,12.4733583984375,9.9442720413208,-1.989332914352417,-0.2991028428077698
1729114512182292700,12.511292724609374,9.894022941589355,-1.2948161363601685,-0.22013968229293823
1729114512220226800,12.549226806640625,9.920343399047852,-1.0459625720977783,-0.4426721930503845
1729114512258161200,12.5871611328125,9.846165657043457,-0.5742774605751038,-0.24885354936122894
1729114512296095200,12.62509521484375,9.896415710449219,-0.2030908167362213,-0.38763725757598877
1729114512334029300,12.663029296875,9.87248706817627,0.05054837837815285,-0.4573282301425934
1729114512371963600,12.700963623046874,9.903594017028809,0.1701895147562027,-0.34695929288864136
1729114512409897700,12.738897705078125,9.908379554748535,0.22043879330158234,-0.2584248483181
1729114512447832000,12.77683203125,9.915557861328125,0.3523431420326233,0.4980062246322632
1729114512485766100,12.81476611328125,9.76241683959961,0.37148571014404297,-0.062213387340307236
1729114512523700500,12.852700439453125,10.140782356262207,0.15104693174362183,-0.521934449672699
1729114512561634600,12.890634521484374,9.788738250732422,0.1701895147562027,0.031106693670153618
1729114512599568600,12.928568603515625,9.88684368133545,0.014656038954854012,-0.21774685382843018
1729114512637503000,12.9665029296875,9.82702350616455,-0.04995017126202583,-0.1986042857170105
1729114512675437000,13.00443701171875,9.956235885620117,-0.10498509556055069,-0.14835500717163086
1729114512713371400,13.042371337890625,9.884450912475586,-0.09780662506818771,-0.1986042857170105
1729114512751305500,13.080305419921874,9.929914474487305,-0.02841476909816265,-0.13639089465141296
1729114512789239800,13.11823974609375,9.874879837036133,0.026620151475071907,-0.20578274130821228
1729114512827174000,13.156173828125,9.896415710449219,0.06011966988444328,-0.13878370821475983
1729114512865108000,13.19410791015625,9.882058143615723,0.04336991161108017,-0.1579262912273407
1729114512903042300,13.232042236328125,9.903594017028809,0.033798620104789734,-0.16510476171970367
1729114512940976400,13.269976318359374,9.903594017028809,0.01944168470799923,-0.1818545162677765
1729114512978910700,13.30791064453125,9.889236450195312,0.007477570790797472,-0.16749759018421173
1729114513016844800,13.3458447265625,9.903594017028809,0.009870393201708794,-0.1746760457754135
1729114513054779100,13.383779052734376,9.898808479309082,0.009870393201708794,-0.07417750358581543
1729114513092713200,13.421713134765625,9.874879837036133,0.029012974351644516,-0.15074782073497772
1729114513130647300,13.459647216796874,9.867701530456543,0.03858426585793495,-0.08135596662759781
1729114513168581600,13.49758154296875,9.75523853302002,0.1582254022359848,0.11515458673238754
1729114513206515700,13.535515625,9.84138011932373,-0.4163511395454407,-0.17706887423992157
1729114513244450000,13.573449951171876,9.774381637573242,0.03858426585793495,0.5267201066017151
1729114513282384100,13.611384033203125,9.74806022644043,0.09122636169195175,0.6296114325523376
1729114513320318500,13.649318359375,9.934700965881348,0.1055833026766777,1.0965110063552856
1729114513358252500,13.68725244140625,9.805487632751465,0.05054837837815285,0.8261220455169678
1729114513396186600,13.7251865234375,10.152746200561523,-0.09062815457582474,0.7160521745681763
1729114513434121000,13.763120849609376,9.915557861328125,-0.08344969153404236,0.490827739238739
1729114513472055000,13.801054931640625,9.884450912475586,-0.29431718587875366,0.3161516785621643
1729114513509989400,13.8389892578125,9.822237968444824,-0.363709032535553,0.2826521694660187
1729114513547923500,13.87692333984375,9.932307243347168,-0.37806597352027893,0.1295115202665329
1729114513585857800,13.91485791015625,9.793523788452148,-0.46420758962631226,-0.3517449200153351
1729114513623791900,13.9527919921875,9.97298526763916,-0.5096712112426758,-0.5003990530967712
1729114513661726200,13.990726318359375,9.72652530670166,-0.519242525100708,-0.5338985323905945
1729114513699660300,14.028660400390624,9.83420181274414,-0.34695929288864136,0.07896314561367035
1729114513737594400,14.066594482421875,9.855737686157227,-0.4163511395454407,-0.2632105052471161
1729114513775528700,14.10452880859375,9.922736167907715,-0.34695929288864136,-0.43549370765686035
1729114513813462800,14.142462890625,9.829416275024414,-0.42352959513664246,-0.363709032535553
1729114513851397000,14.180397216796875,10.126425743103027,-0.2560320198535919,-0.038285162299871445
1729114513889331200,14.218331298828126,9.582955360412598,-0.45942193269729614,-0.27756741642951965
1729114513927265500,14.256265625,9.999306678771973,-0.26081767678260803,0.21326032280921936
1729114513965199600,14.29419970703125,10.020842552185059,-0.4450650215148926,-0.15074782073497772
1729114514003133700,14.3321337890625,9.817452430725098,-0.31106695532798767,-0.10767702013254166
1729114514041068000,14.370068115234375,9.750452995300293,-0.18873389065265656,0.44775694608688354
1729114514079002000,14.408002197265626,9.807881355285645,-0.27756741642951965,-0.12442677468061447
1729114514116936400,14.4459365234375,9.910772323608398,-0.3565305769443512,-0.11724831163883209
1729114514154870500,14.48387060546875,9.867701530456543,-0.45224347710609436,-0.08614161610603333
1729114514192804900,14.521804931640625,10.100104331970215,-0.30628129839897156,0.1534397453069687
1729114514230739000,14.559739013671875,9.8509521484375,-0.275174617767334,-0.13160525262355804
1729114514268673000,14.597673095703126,10.080962181091309,-0.48574298620224,-0.42352959513664246
1729114514306607400,14.635607421875,10.025628089904785,-0.3684946894645691,-0.24885354936122894
1729114514344541400,14.67354150390625,9.977771759033203,-0.4426721930503845,-0.15314064919948578
1729114514382475800,14.711475830078125,10.035199165344238,-0.31106695532798767,0.12472587823867798
1729114514420409900,14.749409912109375,10.059426307678223,-0.43549370765686035,-0.19142581522464752
1729114514458344200,14.78734423828125,9.891630172729492,-0.37088751792907715,-0.10767702013254166
1729114514496278300,14.8252783203125,9.82702350616455,-0.38285163044929504,-0.16271193325519562
1729114514534212400,14.86321240234375,9.975378036499023,-0.2392822653055191,-0.15074782073497772
1729114514572146700,14.901146728515625,10.011270523071289,-0.3852444589138031,-0.3445664644241333
1729114514610080800,14.939080810546875,10.097711563110352,-0.37088751792907715,-0.07657032459974289
1729114514648015000,14.97701513671875,9.860523223876953,-0.45224347710609436,-0.10049854964017868
1729114514685949200,15.01494921875,9.980164527893066,-0.31824541091918945,-0.09571290761232376
1729114514723883500,15.052883544921874,9.671489715576172,-0.46420758962631226,-0.6822535395622253
1729114514761817600,15.090817626953125,9.611669540405273,-0.22223339974880219,-0.22492532432079315
1729114514799752000,15.128751953125,10.032806396484375,-0.33020952343940735,-0.02632104977965355
1729114514837686000,15.16668603515625,9.970592498779297,-0.2799602448940277,0.0526420995593071
1729114514875620000,15.2046201171875,9.975378036499023,-0.40677985548973083,-0.20817556977272034
1729114514913554400,15.242554443359374,9.697811126708984,-0.15523436665534973,-0.1052841991186142
1729114514951488500,15.280488525390625,10.0040922164917,-0.23449662327766418,-0.0933200865983963
1729114514989422800,15.3184228515625,9.894022941589355,-0.5886343717575073,-0.45254257321357727
1729114515027357000,15.35635693359375,9.874879837036133,-0.4785645306110382,-0.44745782017707825
1729114515065291300,15.394291259765625,9.9442720413208,-0.6293123364448547,-0.5745765566825867
1729114515103225300,15.432225341796874,9.932307243347168,-0.5575276613235474,-0.91914302110672
1729114515141159400,15.470159423828125,9.75523853302002,-0.46899324655532837,-1.0917253494262695
1729114515179093800,15.50809375,10.011270523071289,-0.5551348328590393,-1.0965110063552856
1729114515217027800,15.54602783203125,9.968199729919434,-0.29431718587875366,-0.524327278137207
1729114515254962200,15.583962158203125,9.836594581604004,-0.1217348501086235,-0.524327278137207
1729114515292896300,15.621896240234374,9.810274124145508,-0.0810568705201149,-0.49322056770324707
1729114515330830600,15.65983056640625,9.9442720413208,-0.040378883481025696,-0.1052841991186142
1729114515368764700,15.6977646484375,9.807881355285645,0.08644071966409683,-0.14835500717163086
1729114515406698800,15.73569873046875,9.917950630187988,0.03858426585793495,-0.2512463629245758
1729114515444633000,15.773633056640625,9.884450912475586,0.03858426585793495,-0.14835500717163086
1729114515482567200,15.811567138671874,9.910772323608398,-0.05473581701517105,-0.21296121180057526
1729114515520501500,15.84950146484375,9.874879837036133,-0.08344969153404236,-0.1986042857170105
1729114515558435600,15.887435546875,9.922736167907715,-0.10737791657447815,-0.1818545162677765
1729114515596370000,15.925369873046876,9.874879837036133,-0.10737791657447815,-0.20338992774486542
1729114515634304000,15.963303955078125,9.913165092468262,-0.05234299600124359,0.004785645287483931
1729114515672238300,16.00123828125,9.903594017028809,0.04336991161108017,0.17976079881191254
1729114515710172400,16.03917236328125,9.745667457580566,0.04336991161108017,0.6200401782989502
1729114515748106800,16.077106689453124,10.102497100830078,-0.34217363595962524,0.385543555021286
1729114515786040800,16.115040771484374,9.968199729919434,-0.5335994362831116,-0.5841478109359741
1729114515823975000,16.152974853515627,9.793523788452148,-0.042771704494953156,0.4740779995918274
1729114515861909200,16.1909091796875,9.95145034790039,-0.22462622821331024,-1.1156535148620605
1729114515899843300,16.22884326171875,10.131211280822754,-0.1743769496679306,-1.2616157531738281
1729114515937777700,16.266777587890626,9.817452430725098,0.10797612369060516,-0.4450650215148926
1729114515975711700,16.304711669921875,9.760024070739746,0.2228316068649292,0.09810572862625122
1729114516013645800,16.342645751953125,9.86530876159668,0.09122636169195175,-0.3684946894645691
1729114516051580200,16.380580078125,9.908379554748535,0.031405795365571976,-0.064606212079525
1729114516089514200,16.41851416015625,9.905986785888672,-0.021236300468444824,-0.23210379481315613
1729114516127448600,16.456448486328124,9.874879837036133,-0.04755735024809837,-0.059820566326379776
1729114516165382700,16.494382568359374,9.956235885620117,-0.14805589616298676,0.19651055335998535
1729114516203317000,16.53231689453125,9.99691390991211,-0.19351953268051147,0.6032904386520386
1729114516241251000,16.5702509765625,10.145567893981934,-0.6843472719192505,-0.5338985323905945
1729114516279185400,16.608185302734373,9.659525871276855,-0.10019944608211517,0.09092725813388824
1729114516317119500,16.646119384765626,9.738489151000977,-0.07866404205560684,-0.6248258352279663
1729114516355053800,16.6840537109375,10.080962181091309,-0.06191428750753403,-0.8904291391372681
1729114516392988000,16.72198779296875,9.862915992736816,-0.042771704494953156,-0.45972105860710144
1729114516430922000,16.759921875,9.86530876159668,0.08883354067802429,-0.06699903309345245
1729114516468856300,16.797856201171875,9.843772888183594,0.06011966988444328,-0.2632105052471161
1729114516506790400,16.835790283203124,9.939486503601074,0.024227328598499298,-0.12442677468061447
1729114516544724700,16.873724853515625,9.87966537475586,-0.023629123345017433,-0.2273181527853012
1729114516582658800,16.911658935546875,9.929914474487305,-0.09780662506818771,-0.14835500717163086
1729114516620593200,16.94959326171875,9.882058143615723,-0.10737791657447815,-0.18424734473228455
1729114516658527200,16.98752734375,9.917950630187988,-0.1217348501086235,-0.17706887423992157
1729114516696461300,17.02546142578125,9.889236450195312,-0.10977073758840561,-0.16031911969184875
1729114516734395600,17.063395751953124,9.905986785888672,-0.07627122104167938,-0.19621145725250244
1729114516772329700,17.101329833984376,9.894022941589355,-0.05952146276831627,-0.15314064919948578
1729114516810264000,17.13926416015625,9.889236450195312,-0.07627122104167938,-0.20338992774486542
1729114516848198100,17.1771982421875,9.901201248168945,-0.06430710852146149,-0.17228323221206665
1729114516886132500,17.215132568359376,9.963414192199707,-0.0810568705201149,-0.23688943684101105
1729114516924066600,17.253066650390625,9.905986785888672,0.2228316068649292,-0.1579262912273407
1729114516962001000,17.2910009765625,9.987342834472656,0.3475574851036072,-0.12681959569454193
1729114516999935000,17.32893505859375,9.896415710449219,0.735194742679596,-0.04785645380616188
1729114517037869000,17.366869140625,9.95145034790039,0.8165507316589355,0.08374879509210587
1729114517075803400,17.404803466796874,9.87966537475586,0.9699904918670654,0.009571290574967861
1729114517113737500,17.442737548828124,9.920343399047852,0.9053842425346375,-0.3397808074951172
1729114517151671800,17.480671875,9.984950065612793,0.9484550952911377,-0.349352091550827
1729114517189606000,17.51860595703125,9.836594581604004,1.230808138847351,-0.12442677468061447
1729114517227540200,17.556540283203127,9.910772323608398,1.438983678817749,-0.004785645287483931
1729114517265474300,17.594474365234376,10.265209197998047,1.5278172492980957,0.17976079881191254
1729114517303408600,17.63240869140625,9.977771759033203,1.2690932750701904,-0.08853443711996078
1729114517341342700,17.6703427734375,10.930712699890137,1.6977076530456543,0.23718854784965515
1729114517379277000,17.708277099609376,9.652347564697266,1.817348837852478,0
1729114517417211100,17.746211181640625,9.862915992736816,1.3600205183029175,-0.7444669604301453
1729114517455145200,17.784145263671874,8.10807991027832,2.155035972595215,-0.4211367964744568
1729114517493079600,17.82207958984375,7.950153350830078,2.4038894176483154,-0.22492532432079315
1729114517531013600,17.860013671875,9.185447692871094,2.42303204536438,0.12711870670318604
1729114517568948000,17.897947998046874,9.870094299316406,2.7152554988861084,0.10049854964017868
1729114517606882000,17.935882080078127,11.612966537475586,1.434198021888733,0.1989033818244934
1729114517644816400,17.97381640625,10.681859016418457,2.102393865585327,-0.6391827464103699
1729114517682750500,18.01175048828125,5.867201328277588,3.371187925338745,-0.2584248483181
1729114517720684500,18.0496845703125,8.40030288696289,2.509173631668091,-0.6702894568443298
1729114517758619000,18.087618896484376,10.016056060791016,3.151048421859741,0.34247273206710815
1729114517796553000,18.125552978515625,8.390731811523438,3.0550363063812256,-0.4307080805301666
1729114517834487300,18.1634873046875,10.198209762573242,2.461317300796509,0.040677983313798904
1729114517872421400,18.20142138671875,8.4529447555542,1.9848463535308838,-0.8928219676017761
1729114517910355700,18.239355712890625,9.037093162536621,1.6929219961166382,0.6702894568443298
1729114517948289800,18.277289794921874,4.875974178314209,1.5900306701660156,-1.1276177167892456
1729114517986224000,18.31522412109375,10.289137840270996,1.041775107383728,-1.2113664150238037
1729114518024158200,18.353158203125,9.367302894592285,0.5605186820030212,0.5578267574310303
1729114518062092300,18.39109228515625,8.045866012573242,0.2754737138748169,-1.189831018447876
1729114518100026600,18.429026611328126,11.612966537475586,-0.42831525206565857,-0.5769693851470947
1729114518137960700,18.466960693359376,11.22054386138916,0.953240692615509,-0.8760721683502197
1729114518175895000,18.50489501953125,6.906284332275391,0.5533402562141418,-1.1324033737182617
1729114518213829000,18.5428291015625,8.718548774719238,-0.49292147159576416,-0.31824541091918945
1729114518251763500,18.580763427734375,10.909177780151367,-0.08584251254796982,-0.014356935396790504
1729114518289697500,18.618697509765624,10.13599681854248,0.6969096064567566,-0.6272186636924744
1729114518327632000,18.6566318359375,10.370492935180664,-0.5599204897880554,-1.5487544536590576
1729114518365566000,18.69456591796875,13.401302337646484,-0.4091726839542389,-0.4621138870716095
1729114518403500300,18.732500244140624,9.750452995300293,0.5485545992851257,-0.5650052428245544
1729114518441434400,18.770434326171873,7.820940971374512,0.7232306599617004,-1.1467602252960205
1729114518479368400,18.808368408203126,12.223435401916504,-1.0507482290267944,-0.07417750358581543
1729114518517302800,18.846302734375,7.418647289276123,0.4217349886894226,-0.37088751792907715
1729114518555236900,18.88423681640625,7.7823567390441895,-0.018843477591872215,-0.17946170270442963
1729114518593171200,18.922171142578126,12.223435401916504,-0.09062815457582474,-0.04307080805301666
1729114518631105300,18.960105224609375,8.57019329071045,-0.0690927505493164,-0.8234301209449768
1729114518669039600,18.99803955078125,11.440683364868164,0.12233305722475052,-0.9669994711875916
1729114518706973700,19.0359736328125,12.501301765441895,-0.32303106784820557,-0.33020952343940735
1729114518744908000,19.073907958984375,11.323434829711914,-0.37088751792907715,0.11006984114646912
1729114518782842000,19.111842041015624,8.692227363586426,-0.4713860750198364,-0.3517449200153351
1729114518820776200,19.149776123046873,11.179865837097168,-0.7441678643226624,-0.36610186100006104
1729114518858710500,19.18771044921875,11.816655158996582,0.1462612897157669,-0.7995018362998962
1729114518896644600,19.22564453125,7.143173694610596,0.8715856671333313,0.6559324860572815
1729114518934579000,19.263578857421876,11.756834983825684,-0.35892340540885925,-0.7061817646026611
1729114518972513000,19.301512939453126,8.110472679138184,-0.12891331315040588,-0.12681959569454193
1729114519010447400,19.339447265625,8.54865837097168,0.9987043738365173,-0.7157530784606934
1729114519048381400,19.37738134765625,8.163114547729492,0.30179476737976074,-0.32542386651039124
1729114519086315800,19.415315673828125,9.614062309265137,-0.4331009089946747,-0.4621138870716095
1729114519124249900,19.453249755859375,6.649953365325928,0.06011966988444328,-0.6822535395622253
1729114519162184200,19.49118408203125,12.608979225158691,0.06251249462366104,0.14865410327911377
1729114519200118300,19.5291181640625,8.603693008422852,0.8811569213867188,0.7040880918502808
1729114519238052400,19.56705224609375,9.077771186828613,0.4695914387702942,-0.7468597888946533
1729114519275986700,19.604986572265624,10.765607833862305,-0.9933205246925354,-0.5697908997535706
1729114519313920800,19.642920654296876,6.0849480628967285,-0.6149554252624512,-0.14835500717163086
1729114519351855000,19.680855224609374,9.535099029541016,0.009870393201708794,0.02392822690308094
1729114519389789200,19.7187890625,11.251649856567383,-0.3756731450557709,0.38315072655677795
1729114519427723500,19.7567236328125,6.506383895874023,1.383948802947998,0.059820566326379776
1729114519465657600,19.79465771484375,5.941378593444824,-0.14327025413513184,-0.21774685382843018
1729114519503592000,19.832592041015626,11.187044143676758,-1.1225329637527466,-0.5721837282180786
1729114519541526000,19.870526123046876,9.60209846496582,0.2682952284812927,0.1582254022359848
1729114519579460000,19.908460205078125,11.488539695739746,-0.3278166949748993,-0.6631109714508057
1729114519617394400,19.94639453125,10.482955932617188,-0.0810568705201149,-0.9622138142585754
1729114519655328500,19.98432861328125,10.966605186462402,0.08883354067802429,-0.8688937425613403
1729114519693262800,20.022262939453125,9.85813045501709,-0.1504487246274948,0.1941177397966385
1729114519731197000,20.060197021484374,7.756035327911377,-0.6173482537269592,-0.3086741268634796
1729114519769131300,20.09813134765625,9.678668022155762,-0.44745782017707825,-0.2512463629245758
1729114519807065300,20.1360654296875,10.674680709838867,-0.4953143000602722,0.11515458673238754
1729114519844999700,20.173999755859374,8.708976745605469,0.026620151475071907,-0.44027936458587646
1729114519882933800,20.211933837890626,9.578169822692871,-1.0339984893798828,0.263509601354599
1729114519920868000,20.2498681640625,8.807083129882812,-0.16959130764007568,-0.035892341285943985
1729114519958802200,20.28780224609375,7.767999649047852,-0.6819544434547424,-0.7181459069252014
1729114519996736300,20.325736328125,13.796417236328125,-0.5455635786056519,-0.7540382146835327
1729114520034670600,20.363670654296875,10.705787658691406,0.0649053156375885,-0.20099709928035736
1729114520072604700,20.401604736328125,11.835798263549805,-0.5790630578994751,-0.16510476171970367
1729114520110539000,20.4395390625,12.484552383422852,-0.14327025413513184,-0.23210379481315613
1729114520148473000,20.47747314453125,9.7097749710083,-0.03559323772788048,-0.04546362906694412
1729114520186407400,20.515407470703124,10.710573196411133,0.6418746709823608,-0.3086741268634796
1729114520224341500,20.553341552734373,11.553146362304688,-0.23449662327766418,0.490827739238739
1729114520262275800,20.59127587890625,8.886046409606934,-0.7369893789291382,-0.6798607110977173
1729114520300210000,20.6292099609375,8.938986778259277,-0.8521439433097839,-0.3038884699344635
1729114520338144000,20.66714404296875,12.374482154846191,-1.3402798175811768,-0.059820566326379776
1729114520376078300,20.705078369140626,6.777071952819824,-0.35413774847984314,-0.2991028428077698
1729114520414012400,20.743012451171875,10.219745635986328,-1.2972090244293213,-0.4331009089946747
1729114520451946800,20.78094677734375,10.301101684570312,-1.811964988708496,-0.88803631067276
1729114520489880800,20.818880859375,8.953344345092773,-1.2756736278533936,-0.34217363595962524
1729114520527815200,20.856815185546875,13.159626960754395,-4.150949001312256,1.1300104856491089
1729114520565749200,20.894749267578124,8.479266166687012,-2.8797619342803955,0.21804596483707428
1729114520603683600,20.93268359375,8.237292289733887,-2.0156540870666504,1.537089467048645
1729114520641617700,20.97061767578125,10.909177780151367,-2.7553353309631348,0.3113660514354706
1729114520679552000,21.008552001953124,7.344470024108887,-2.4080770015716553,-0.07657032459974289
1729114520717486000,21.046486083984377,12.122937202453613,-3.243770122528076,-0.15074782073497772
1729114520755420200,21.084420166015626,8.24686336517334,-1.6157535314559937,0.41186460852622986
1729114520793354500,21.1223544921875,11.102995872497559,-2.3554348945617676,0.45972105860710144
1729114520831288800,21.160288818359376,8.103293418884277,-3.07627272605896,-0.7588238716125488
1729114520869223000,21.198222900390626,11.632108688354492,-2.99222469329834,0.21326032280921936
1729114520907157000,21.236156982421875,8.953344345092773,-2.357827663421631,-0.17228323221206665
1729114520945091300,21.27409130859375,10.48534870147705,-2.908475875854492,0.13908281922340393
1729114520983025400,21.312025390625,9.688240051269531,-2.3626132011413574,-0.2153540402650833
1729114521020959700,21.349959716796874,9.637990951538086,-2.295614242553711,-0.4980062246322632
1729114521058893800,21.387893798828124,10.179067611694336,-2.504088878631592,-0.21296121180057526
1729114521096828200,21.425828125,9.72652530670166,-2.0491535663604736,-0.397208571434021
1729114521134762200,21.46376220703125,9.992128372192383,-2.0946171283721924,-0.28235307335853577
1729114521172696600,21.501696533203123,9.829416275024414,-1.6037893295288086,-0.09092725813388824
1729114521210630700,21.539630615234376,9.937093734741211,-1.2062816619873047,-0.4668995141983032
1729114521248564700,21.577564697265625,9.84855842590332,-0.8497511148452759,-0.21296121180057526
1729114521286499000,21.6154990234375,9.937093734741211,-0.4498506486415863,-0.28235307335853577
1729114521324433200,21.65343310546875,9.905986785888672,-0.021236300468444824,-0.3397808074951172
1729114521362367500,21.691367431640625,9.822237968444824,0.19172491133213043,-0.035892341285943985
1729114521400301600,21.729301513671874,9.9442720413208,0.31375887989997864,-0.12203395366668701
1729114521438236000,21.76723583984375,9.853344917297363,0.3209373354911804,-0.33499518036842346
1729114521476170000,21.805169921875,9.934700965881348,0.27308088541030884,-0.15553347766399384
1729114521514104300,21.843104248046874,9.87966537475586,0.1534397453069687,-0.2560320198535919
1729114521552038400,21.881038330078123,9.882058143615723,0.13668999075889587,-0.2105683982372284
1729114521589972700,21.91897265625,9.882058143615723,0.10797612369060516,-0.26081767678260803
1729114521627906800,21.95690673828125,9.901201248168945,0.09122636169195175,-0.23449662327766418
1729114521665841000,21.9948408203125,9.889236450195312,0.06969095766544342,-0.21774685382843018
1729114521703775200,22.032775146484376,9.894022941589355,0.03858426585793495,-0.24167509377002716
1729114521741709300,22.070709228515625,9.891630172729492,0.01704886183142662,-0.22492532432079315
1729114521779643600,22.1086435546875,9.903594017028809,0.00029910283046774566,-0.25363919138908386
1729114521817577700,22.14657763671875,9.894022941589355,-0.023629123345017433,-0.24646073579788208
1729114521855512000,22.184511962890625,9.905986785888672,-0.016450656577944756,-0.2273181527853012
1729114521893446100,22.222446044921874,9.884450912475586,-0.02841476909816265,-0.22971096634864807
1729114521931380500,22.26038037109375,9.889236450195312,-0.023629123345017433,-0.22971096634864807
1729114521969314600,22.298314453125,9.896415710449219,-0.016450656577944756,-0.2273181527853012
1729114522007248600,22.33624853515625,9.901201248168945,-0.018843477591872215,-0.23210379481315613
1729114522045183000,22.374182861328126,9.87966537475586,-0.004486542660742998,-0.11964113265275955
1729114522083117000,22.412116943359376,9.898808479309082,0.009870393201708794,-0.13878370821475983
1729114522121051400,22.450051513671873,9.862915992736816,0.10319047421216965,0.1989033818244934
1729114522158985500,22.4879853515625,9.980164527893066,0.014656038954854012,-0.1986042857170105
1729114522196919800,22.525919921875,10.045069694519043,-0.16959130764007568,0.031106693670153618
1729114522234854000,22.56385400390625,9.910772323608398,-0.002093719784170389,0.5937191247940063
1729114522272788200,22.601788330078126,9.901201248168945,0.007477570790797472,0.6391827464103699
1729114522310722300,22.639722412109375,9.884450912475586,-0.18394823372364044,0.5817549824714661
1729114522348656600,22.67765673828125,9.85813045501709,-0.25363919138908386,0.6343970894813538
1729114522386590700,22.7155908203125,9.690632820129395,-0.03798605874180794,1.293021559715271
1729114522424524800,22.75352490234375,10.315458297729492,-0.48574298620224,0.1701895147562027
1729114522462459100,22.791459228515624,9.74806022644043,-0.3684946894645691,0.11276176571846008
1729114522500393200,22.829393310546877,9.984950065612793,-0.4618147611618042,-0.7995018362998962
1729114522538327600,22.86732763671875,9.750452995300293,-0.27038896083831787,-0.6320042610168457
1729114522576261600,22.90526171875,9.891630172729492,-0.363709032535553,-0.6583253145217896
1729114522614196000,22.943196044921876,9.819845199584961,-0.20548364520072937,-0.35892340540885925
1729114522652130000,22.981130126953126,10.083354949951172,-0.27038896083831787,-0.4812564551830292
1729114522690064400,23.019064453125,9.860523223876953,-0.27038896083831787,-0.4307080805301666
1729114522727998500,23.05699853515625,9.977771759033203,-0.13609178364276886,-0.33020952343940735
1729114522765932500,23.0949326171875,9.836594581604004,-0.24646073579788208,-0.28953152894973755
1729114522803867000,23.132866943359375,9.819845199584961,-0.24167509377002716,-0.4668995141983032
1729114522841801200,23.17080126953125,10.083354949951172,-0.29431718587875366,-0.3517449200153351
1729114522879735300,23.2087353515625,9.874879837036133,-0.2150549292564392,-0.035892341285943985
1729114522917669400,23.24666943359375,9.843772888183594,-0.0810568705201149,0.2874378263950348
1729114522955603700,23.284603759765623,9.915557861328125,-0.24646073579788208,-0.10289137065410614
1729114522993537800,23.322537841796876,9.882058143615723,-0.2512463629245758,0.17258232831954956
1729114523031472000,23.36047216796875,9.829416275024414,-0.4331009089946747,-0.11485548317432404
1729114523069406200,23.39840625,9.860523223876953,-0.42831525206565857,0.007178467698395252
1729114523107340500,23.436340576171876,9.889236450195312,-0.41874396800994873,0.02153540402650833
1729114523145274600,23.474274658203125,9.831809043884277,-0.48813581466674805,-0.32303106784820557
1729114523183209000,23.512208984375,9.896415710449219,-0.48095735907554626,-0.32542386651039124
1729114523221143000,23.55014306640625,9.891630172729492,-0.5240281820297241,0.07657032459974289
1729114523259077400,23.588077392578125,10.008877754211426,-0.6604190468788147,-0.4860421121120453
1729114523297011500,23.626011474609374,9.925128936767578,-0.4977070987224579,-0.4668995141983032
1729114523334945500,23.663945556640623,9.76241683959961,-0.4019941985607147,-0.4692923426628113
1729114523372880000,23.7018798828125,9.927521705627441,-0.4043870270252228,-0.27756741642951965
1729114523410814000,23.73981396484375,10.073782920837402,-0.2584248483181,0.10767702013254166
1729114523448748300,23.777748291015627,10.126425743103027,-0.3326023519039154,-0.05742774158716202
1729114523486682400,23.815682373046876,9.934700965881348,-0.45942193269729614,-0.3326023519039154
1729114523524616700,23.85361669921875,9.604491233825684,-0.37806597352027893,-0.09092725813388824
1729114523562550800,23.89155078125,9.731310844421387,-0.2967100143432617,-0.035892341285943985
1729114523600485000,23.929485107421876,9.843772888183594,-0.3732803463935852,-0.16749759018421173
1729114523638419200,23.967419189453125,9.984950065612793,-0.3086741268634796,-0.11964113265275955
1729114523676353300,24.005353271484374,9.884450912475586,-0.29431718587875366,-0.040677983313798904
1729114523714287600,24.04328759765625,9.843772888183594,-0.4211367964744568,-0.5889334678649902
1729114523752221700,24.0812216796875,9.963414192199707,-0.45942193269729614,-0.380458801984787
1729114523790156000,24.119156005859374,9.853344917297363,-0.4450650215148926,-0.019142581149935722
1729114523828090000,24.157090087890627,10.008877754211426,-0.3038884699344635,0.26111677289009094
1729114523866024400,24.1950244140625,10.011270523071289,-0.5096712112426758,-0.1818545162677765
1729114523903958500,24.23295849609375,10.016056060791016,-0.5144568681716919,-0.5123631358146667
1729114523941892900,24.270892822265626,9.74088191986084,-0.41874396800994873,-0.31824541091918945
1729114523979827000,24.308826904296875,9.812666893005371,-0.3900300860404968,-0.4019941985607147
1729114524017761300,24.34676123046875,9.862915992736816,-0.2967100143432617,-0.19381862878799438
1729114524055695400,24.3846953125,10.229316711425781,-0.3445664644241333,0.014356935396790504
1729114524093629700,24.422629638671875,10.05703353881836,-0.5527420043945312,-0.24406790733337402
1729114524131563800,24.460563720703124,9.704989433288574,-0.3038884699344635,-0.09571290761232376
1729114524169497900,24.498497802734374,9.745667457580566,-0.28235307335853577,-0.3732803463935852
1729114524207432200,24.53643212890625,9.98973560333252,-0.38763725757598877,-0.28953152894973755
1729114524245366300,24.5743662109375,9.927521705627441,-0.4450650215148926,-0.12921242415905
1729114524283300600,24.612300537109373,9.731310844421387,-0.3565305769443512,-0.5937191247940063
1729114524321234700,24.650234619140626,10.140782356262207,-0.3445664644241333,-0.2512463629245758
1729114524359169000,24.6881689453125,9.76241683959961,-0.3924229145050049,-0.4621138870716095
1729114524397103000,24.72610302734375,10.008877754211426,-0.22462622821331024,-0.34217363595962524
1729114524435037400,24.764037353515626,9.786345481872559,-0.35892340540885925,-1.441077470779419
1729114524472971500,24.801971435546875,9.647562026977539,-0.41156548261642456,-1.7907286882400513
1729114524510905900,24.83990576171875,9.956235885620117,-0.30149564146995544,-1.0462616682052612
1729114524548840000,24.87783984375,10.032806396484375,-0.13130614161491394,-0.15553347766399384
1729114524586774000,24.91577392578125,9.937093734741211,-0.24167509377002716,-0.22492532432079315
1729114524624708400,24.953708251953124,9.956235885620117,-0.0930209830403328,-0.22013968229293823
1729114524662642400,24.991642333984377,9.427123069763184,-0.05473581701517105,-0.06939185410737991
1729114524700576800,25.02957666015625,9.8509521484375,-0.045164529234170914,-0.02153540402650833
1729114524738510800,25.0675107421875,9.769596099853516,-0.07148557901382446,-0.2967100143432617
1729114524776445200,25.105445068359376,9.961021423339844,-0.05234299600124359,-0.03349951654672623
1729114524814379300,25.143379150390626,9.898808479309082,-0.09062815457582474,-0.31106695532798767
1729114524852313600,25.181313720703123,9.9442720413208,-0.10019944608211517,-0.07417750358581543
1729114524890247700,25.21924755859375,9.867701530456543,-0.10737791657447815,-0.23210379481315613
1729114524928181800,25.257181640625,9.889236450195312,-0.11455638706684113,-0.1339980661869049
1729114524966116000,25.2951162109375,9.884450912475586,-0.10498509556055069,-0.18903298676013947
1729114525004050200,25.33305029296875,9.908379554748535,-0.10498509556055069,-0.17706887423992157
1729114525041984500,25.370984619140625,9.898808479309082,-0.11216355860233307,-0.15314064919948578
1729114525079918600,25.408918701171874,9.905986785888672,-0.10259227454662323,-0.19142581522464752
1729114525117853000,25.44685302734375,9.889236450195312,-0.10977073758840561,-0.15553347766399384
1729114525155787000,25.484787109375,9.903594017028809,-0.11455638706684113,-0.18903298676013947
1729114525193721300,25.522721435546874,9.894022941589355,-0.10737791657447815,-0.1579262912273407
1729114525231655400,25.560655517578127,9.87248706817627,-0.06669992953538895,-0.1818545162677765
1729114525269589800,25.59858984375,9.88684368133545,0.22043879330158234,-0.20099709928035736
1729114525307523800,25.63652392578125,9.889236450195312,0.5676971673965454,-0.20338992774486542
1729114525345458000,25.6744580078125,9.910772323608398,1.0082756280899048,0.04546362906694412
1729114525383392300,25.712392333984376,9.83420181274414,1.446162223815918,-0.14356936514377594
1729114525421326300,25.750326416015625,9.64038372039795,1.7575281858444214,0
1729114525459260700,25.7882607421875,9.776774406433105,1.633101463317871,-0.2225325107574463
1729114525497194800,25.82619482421875,9.712167739868164,1.8149559497833252,-0.4692923426628113
1729114525535129000,25.864129150390625,9.798309326171875,2.0210378170013428,-0.4211367964744568
1729114525573063200,25.902063232421874,9.352945327758789,2.085644006729126,-0.3086741268634796
1729114525610997500,25.93999755859375,8.996415138244629,2.0425732135772705,-0.4378865361213684
1729114525648931600,25.977931640625,10.753643989562988,1.695314884185791,-0.6702894568443298
1729114525686866000,26.015865966796873,9.795916557312012,2.085644006729126,-0.2679961323738098
1729114525724800000,26.053800048828126,7.406683444976807,2.281855583190918,-0.45254257321357727
1729114525762734300,26.091734375,10.554740905761719,1.328913927078247,-0.9095717072486877
1729114525800668400,26.12966845703125,7.552645683288574,1.9489539861679077,-0.31345975399017334
1729114525838602800,26.167602783203126,10.549955368041992,1.3049856424331665,-0.12203395366668701
1729114525876536800,26.205536865234375,11.809476852416992,1.2044870853424072,-0.5195416212081909
1729114525914471000,26.243470947265624,10.92592716217041,2.2531416416168213,0.02392822690308094
1729114525952405200,26.2814052734375,11.756834983825684,1.8005990982055664,-0.48843491077423096
1729114525990339300,26.31933935546875,12.087044715881348,1.7407784461975098,0.29700911045074463
1729114526028273700,26.357273681640624,17.03809356689453,-0.8784649968147278,-0.0526420995593071
1729114526066207700,26.395207763671873,13.152448654174805,1.4198411703109741,0.6559324860572815
1729114526104142000,26.43314208984375,11.175080299377441,1.2236297130584717,0.5267201066017151
1729114526142076200,26.471076171875,10.921141624450684,1.013061285018921,-0.8186444640159607
1729114526180010500,26.509010498046877,9.597312927246094,1.0752747058868408,1.2762718200683594
1729114526217944600,26.546944580078126,14.110176086425781,0.02183450572192669,-0.9502496719360352
1729114526255878700,26.584878662109375,8.093722343444824,1.4413765668869019,-0.766002357006073
1729114526293813000,26.62281298828125,6.152245998382568,1.1015957593917847,0.18454644083976746
1729114526331747000,26.6607470703125,12.776476860046387,-0.4450650215148926,0.13190434873104095
1729114526369681400,26.698681396484375,8.24686336517334,-0.24406790733337402,-0.48843491077423096
1729114526407615500,26.736615478515624,13.573884963989258,-0.2847459018230438,-0.36610186100006104
1729114526445549800,26.7745498046875,6.836892604827881,1.2882359027862549,-0.5099703073501587
1729114526483484000,26.81248388671875,12.039188385009766,-0.4785645306110382,-0.3445664644241333
1729114526521418200,26.850418212890624,12.206686019897461,-0.8018946647644043,1.836491346359253
1729114526559352300,26.888352294921877,9.053842544555664,-0.133698970079422,-1.2185449600219727
1729114526597286400,26.926286376953126,11.356934547424316,-0.9454640746116638,-0.9454640746116638
1729114526635220700,26.964220703125,12.659228324890137,0.2946162819862366,1.2065808773040771
1729114526673154800,27.00215478515625,7.6028947830200195,0.6993024349212646,-0.5745765566825867
1729114526711089200,27.040089111328125,10.796714782714844,0.6035895347595215,0.18933209776878357
1729114526749023200,27.078023193359375,6.82014274597168,0.014656038954854012,-0.4043870270252228
1729114526786957600,27.11595751953125,10.913963317871094,0.3451646566390991,0.26111677289009094
1729114526824891600,27.1538916015625,8.134400367736816,0.5629115104675293,-0.31106695532798767
1729114526862826000,27.191825927734374,10.811071395874023,-0.3278166949748993,0.3400799036026001
1729114526900760000,27.229760009765624,11.16042423248291,-0.38763725757598877,-0.17228323221206665
1729114526938694400,27.2676943359375,8.850153923034668,0.16061821579933167,0.40229329466819763
1729114526976628500,27.30562841796875,14.38056468963623,-0.5431707501411438,0.37118661403656006
1729114527014562600,27.3435625,9.882058143615723,-0.1217348501086235,0.3233301639556885
1729114527052497000,27.381496826171876,10.626824378967285,-0.3038884699344635,0.6056832075119019
1729114527090431000,27.419430908203125,13.047164916992188,0.2922234535217285,-0.5985047817230225
1729114527128365300,27.457365234375,8.91954517364502,1.3695918321609497,-1.0100702047348022
1729114527166299400,27.49529931640625,11.77597713470459,-0.7657032608985901,1.3217353820800781
1729114527204233700,27.533233642578125,9.738489151000977,0.25393831729888916,-0.47168517112731934
1729114527242167800,27.571167724609374,3.0254251956939697,0.8739784955978394,-0.5530411601066589
1729114527280102100,27.60910205078125,11.639287948608398,-1.4841482639312744,0.8715856671333313
1729114527318036200,27.6470361328125,13.130913734436035,-0.3206382393836975,-0.4043870270252228
1729114527355970300,27.68497021484375,8.282755851745605,0.07447660714387894,1.074975609779358
1729114527393904600,27.722904541015627,11.639287948608398,-1.2134602069854736,-0.30628129839897156
1729114527431839000,27.7608388671875,10.468599319458008,0.24197418987751007,-0.8736793398857117
1729114527469773000,27.79877294921875,10.791929244995117,0.07208377867937088,1.9417755603790283
1729114527507707100,27.83670703125,13.04955768585205,0.0649053156375885,0.5769693851470947
1729114527545641500,27.874641357421876,6.614060878753662,0.09840483218431473,-0.17706887423992157
1729114527583575600,27.912575439453125,9.884450912475586,-0.15523436665534973,0.9170492887496948
1729114527621510000,27.950510009765626,11.699108123779297,0.134297177195549,-0.2799602448940277
1729114527659444000,27.98844384765625,9.544670104980469,1.7838492393493652,0.2754737138748169
1729114527697378300,28.02637841796875,7.4617180824279785,0.6969096064567566,0.7663014531135559
1729114527735312400,28.0643125,11.32104206085205,-1.2661023139953613,-0.24167509377002716
1729114527773246700,28.102246826171875,7.779963493347168,0.6921239495277405,0.1052841991186142
1729114527811180800,28.140180908203124,5.354837894439697,0.2946162819862366,-0.48843491077423096
1729114527849115100,28.178115234375,10.729716300964355,-0.4139583110809326,-0.5075774788856506
1729114527887049200,28.21604931640625,9.482457160949707,0.1701895147562027,1.2185449600219727
1729114527924983300,28.2539833984375,9.575777053833008,0.026620151475071907,-1.0004990100860596
1729114527962917600,28.291917724609377,12.805190086364746,-0.5575276613235474,-0.24885354936122894
1729114528000851700,28.329851806640626,4.718048095703125,0.22761724889278412,0.37597227096557617
1729114528038786000,28.3677861328125,6.259922981262207,0.7758727669715881,-0.1339980661869049
1729114528076720000,28.40572021484375,7.722536087036133,0.6203392744064331,-0.15074782073497772
1729114528114654500,28.443654541015626,9.407979965209961,0.05054837837815285,-0.39481574296951294
1729114528152588500,28.481588623046875,7.734499931335449,0.17258232831954956,0.37118661403656006
1729114528190523000,28.51952294921875,8.704191207885742,-0.8736793398857117,0.16779668629169464
1729114528228457000,28.55745703125,10.870892524719238,-0.4618147611618042,0.43579283356666565
1729114528266391000,28.59539111328125,12.13490104675293,-0.5694918036460876,-0.5530411601066589
1729114528304325400,28.633325439453124,13.394124031066895,-0.6652047038078308,1.1491531133651733
1729114528342259500,28.671259521484377,6.094519138336182,1.1374880075454712,-1.0462616682052612
1729114528380193800,28.70919384765625,8.256434440612793,-0.16480566561222076,-0.019142581149935722
1729114528418128000,28.7471279296875,10.571490287780762,-0.09062815457582474,0.368793785572052
1729114528456062200,28.785062255859376,5.974878311157227,1.1542378664016724,-0.4573282301425934
1729114528493996300,28.822996337890626,9.776774406433105,0.005084747914224863,0.007178467698395252
1729114528531930600,28.8609306640625,10.482955932617188,0.34995031356811523,-0.05503492057323456
1729114528569864700,28.89886474609375,6.729215621948242,0.49591249227523804,-0.4331009089946747
1729114528607799000,28.936799072265625,15.687943458557129,-3.100200891494751,0.1701895147562027
1729114528645733000,28.974733154296874,13.528421401977539,-1.3402798175811768,0.6607181429862976
1729114528683667200,29.012667236328124,10.339386940002441,-0.8976075649261475,-0.3756731450557709
1729114528721601500,29.0506015625,11.258829116821289,-0.7130611538887024,-0.2799602448940277
1729114528759535600,29.08853564453125,9.860523223876953,-2.305185556411743,0.035892341285943985
1729114528797470000,29.126469970703123,11.653644561767578,-2.446362018585205,-0.2392822653055191
1729114528835404000,29.164404052734376,9.580562591552734,-2.27168607711792,-1.6112669706344604
1729114528873338400,29.20233837890625,11.787941932678223,-2.0539391040802,-0.2632105052471161
1729114528911272400,29.2402724609375,8.234899520874023,-1.0028917789459229,-0.4259224236011505
1729114528949206800,29.278206787109376,12.726226806640625,-2.4921247959136963,-1.0582258701324463
1729114528987140900,29.316140869140625,8.373981475830078,-2.0324037075042725,0.2946162819862366
1729114529025075000,29.354074951171874,11.790334701538086,-1.8813568353652954,-0.1818545162677765
1729114529063009300,29.39200927734375,7.586144924163818,-1.0196415185928345,-0.34217363595962524
1729114529100943400,29.429943359375,11.378469467163086,-1.8263218402862549,-0.12203395366668701
1729114529138877700,29.467877685546874,8.771190643310547,-2.08504581451416,0.21326032280921936
1729114529176811800,29.505811767578123,10.648360252380371,-2.779263496398926,0.5075774788856506
1729114529214746000,29.54374609375,9.18305492401123,-2.2118654251098633,0.1869392693042755
1729114529252680200,29.58168017578125,9.74806022644043,-2.2860429286956787,0.17736798524856567
1729114529290614500,29.619614501953127,10.114460945129395,-2.3099710941314697,0.04307080805301666
1729114529328548600,29.657548583984376,9.477372169494629,-2.4032912254333496,-0.17706887423992157
1729114529366483000,29.69548291015625,10.53799057006836,-2.460718870162964,-0.5697908997535706
1729114529404417000,29.7334169921875,9.508777618408203,-2.475374937057495,-0.23210379481315613
1729114529442351000,29.77135107421875,10.133604049682617,-2.3937199115753174,-0.1986042857170105
1729114529480285400,29.809285400390625,9.645169258117676,-1.92951238155365,-0.48364928364753723
1729114529518219500,29.847219482421874,10.162318229675293,-1.6109678745269775,-0.19142581522464752
1729114529556153900,29.88515380859375,9.776774406433105,-1.1991032361984253,-0.14356936514377594
1729114529594088000,29.923087890625,10.018449783325195,-0.8760721683502197,-0.3158525824546814
1729114529632022300,29.961022216796874,9.767203330993652,-0.4139583110809326,-0.2225325107574463
1729114529669956400,29.998956298828126,9.932307243347168,-0.13848461210727692,-0.23210379481315613
1729114529707890700,30.036890625,9.810274124145508,0.04097708687186241,-0.19381862878799438
1729114529745824800,30.07482470703125,9.920343399047852,0.1582254022359848,-0.15553347766399384
1729114529783758800,30.1127587890625,9.882058143615723,0.2922234535217285,-0.059820566326379776
1729114529821693200,30.150693115234375,9.934700965881348,0.30179476737976074,-0.12442677468061447
1729114529859627300,30.188627197265625,9.908379554748535,0.2228316068649292,-0.1866401731967926
1729114529897561600,30.2265615234375,9.905986785888672,0.134297177195549,-0.15074782073497772
1729114529935495700,30.26449560546875,9.860523223876953,0.05054837837815285,-0.17946170270442963
1729114529973430000,30.302429931640624,9.894022941589355,-0.03559323772788048,-0.16271193325519562
1729114530011364000,30.340364013671874,9.88684368133545,-0.0930209830403328,-0.1818545162677765
1729114530049298400,30.37829833984375,9.891630172729492,-0.14805589616298676,-0.1818545162677765
1729114530087232500,30.416232421875,9.896415710449219,-0.1863410621881485,-0.17706887423992157
1729114530125166800,30.454166748046877,9.903594017028809,-0.21266211569309235,-0.18424734473228455
1729114530163101000,30.492100830078126,9.896415710449219,-0.20548364520072937,-0.19142581522464752
1729114530201035000,30.530034912109375,9.903594017028809,-0.18873389065265656,-0.18424734473228455
1729114530238969300,30.56796923828125,9.898808479309082,-0.13130614161491394,-0.17946170270442963
1729114530276903400,30.6059033203125,9.889236450195312,-0.09062815457582474,-0.18424734473228455
1729114530314837800,30.643837646484375,9.891630172729492,-0.05712864175438881,-0.16271193325519562
1729114530352771800,30.681771728515624,9.88684368133545,-0.05234299600124359,-0.17946170270442963
1729114530390706200,30.7197060546875,9.894022941589355,-0.07627122104167938,-0.1866401731967926
1729114530428640300,30.75764013671875,9.896415710449219,-0.08584251254796982,-0.17946170270442963
1729114530466574600,30.79557470703125,9.898808479309082,-0.09780662506818771,-0.11724831163883209
1729114530504508700,30.8335087890625,9.862915992736816,-0.05473581701517105,-0.14117653667926788
1729114530542442800,30.87144287109375,9.860523223876953,0.04336991161108017,0.038285162299871445
1729114530580377000,30.909377197265623,9.405587196350098,0.09361918270587921,-0.035892341285943985
1729114530618311200,30.947311279296876,9.786345481872559,-0.4043870270252228,-0.11246266216039658
1729114530656245500,30.98524560546875,9.621240615844727,0.18454644083976746,0.9194421172142029
1729114530694179600,31.0231796875,9.97298526763916,-0.023629123345017433,0.6729813814163208
1729114530732114000,31.061114013671876,10.124032974243164,-0.018843477591872215,0.9002995491027832
1729114530770048000,31.099048095703125,9.891630172729492,-0.018843477591872215,1.036690354347229
1729114530807982000,31.136982177734374,9.87966537475586,-0.17198412120342255,0.4549354016780853
1729114530845916400,31.17491650390625,9.788738250732422,-0.3756731450557709,0.6678966283798218
1729114530883850500,31.2128505859375,9.97298526763916,-0.7010970115661621,0.17497515678405762
1729114530921784800,31.250784912109374,9.915557861328125,-0.6747759580612183,-0.20578274130821228
1729114530959719000,31.288718994140623,9.791131019592285,-0.519242525100708,-0.07178468257188797
1729114530997653200,31.3266533203125,9.917950630187988,-0.6460621356964111,-0.4259224236011505
1729114531035587300,31.36458740234375,9.85813045501709,-0.6173482537269592,-0.19381862878799438
1729114531073521700,31.402521728515627,9.862915992736816,-0.6340979933738708,-0.5578267574310303
1729114531111455700,31.440455810546876,9.975378036499023,-0.48095735907554626,-0.5434698462486267
1729114531149390000,31.47839013671875,9.767203330993652,-0.24406790733337402,0.7782655358314514
1729114531187324200,31.51632421875,9.961021423339844,-0.5335994362831116,0.4334000051021576
1729114531225258200,31.55425830078125,9.8509521484375,-0.4570291340351105,0.4788636267185211
1729114531263192600,31.592192626953125,9.937093734741211,-0.5647061467170715,-0.1746760457754135
1729114531301126700,31.630126708984374,9.956235885620117,-0.5790630578994751,-0.5506483316421509
1729114531339061000,31.66806103515625,9.783952713012695,-0.4737788736820221,-0.6032904386520386
1729114531376995000,31.7059951171875,9.920343399047852,-0.37088751792907715,-0.38763725757598877
1729114531414929400,31.743929443359374,10.032806396484375,-0.5288137793540955,-0.4378865361213684
1729114531452863500,31.781863525390627,9.779167175292969,-0.4043870270252228,-0.6367899179458618
1729114531490797800,31.8197978515625,10.001699447631836,-0.40677985548973083,-0.28953152894973755
1729114531528732000,31.85773193359375,9.829416275024414,-0.397208571434021,-0.30149564146995544
1729114531566666000,31.895666015625,10.013663291931152,-0.34217363595962524,0.016749758273363113
1729114531604600300,31.933600341796875,9.479764938354492,-0.15284155309200287,0.17976079881191254
1729114531642534400,31.971534423828125,9.728918075561523,-0.1863410621881485,0.12472587823867798
1729114531680468700,32.00946875,9.867701530456543,-0.3900300860404968,0.21326032280921936
1729114531718402800,32.04740283203125,10.250852584838867,-0.5623133182525635,0.007178467698395252
1729114531756337200,32.085337158203124,9.815059661865234,-0.4378865361213684,-0.17228323221206665
1729114531794271200,32.123271240234374,9.870094299316406,-0.4570291340351105,0
1729114531832205300,32.16120532226562,9.910772323608398,-0.3924229145050049,-0.08135596662759781
1729114531870139600,32.1991396484375,10.018449783325195,-0.5527420043945312,-0.2679961323738098
1729114531908073700,32.23707373046875,9.95862865447998,-0.3924229145050049,0.0526420995593071
1729114531946008000,32.27500805664062,9.846165657043457,-0.22223339974880219,0.07896314561367035
1729114531983942100,32.31294213867187,9.817452430725098,-0.349352091550827,-0.22013968229293823
1729114532021876500,32.35087646484375,9.949057579040527,-0.33738797903060913,-0.13639089465141296
1729114532059810600,32.388810546875,9.84138011932373,-0.3900300860404968,-0.09571290761232376
1729114532097745000,32.42674487304687,9.649954795837402,-0.3732803463935852,0.09571290761232376
1729114532135679000,32.46467895507813,10.114460945129395,-0.6125625967979431,-0.3900300860404968
1729114532173613300,32.50261328125,9.702596664428711,-0.2871387302875519,0.12711870670318604
1729114532211547400,32.54054736328125,9.908379554748535,-0.4785645306110382,-0.22971096634864807
1729114532249481500,32.5784814453125,9.97298526763916,-0.6005984544754028,0.16779668629169464
1729114532287415800,32.61641577148438,9.862915992736816,-0.5647061467170715,-0.059820566326379776
1729114532325350000,32.654349853515626,9.587740898132324,-0.5312066078186035,-0.32542386651039124
1729114532363284200,32.6922841796875,10.071390151977539,-0.5886343717575073,-0.275174617767334
1729114532401218300,32.73021826171875,9.96580696105957,-0.3732803463935852,-0.16510476171970367
1729114532439152400,32.76815234375,9.695418357849121,-0.3852444589138031,-1.3836497068405151
1729114532477086700,32.806086669921875,9.853344917297363,-0.3278166949748993,-2.183450698852539
1729114532515021000,32.84402099609375,9.970592498779297,-0.34217363595962524,-1.8888343572616577
1729114532552955100,32.881955078125,10.028020858764648,-0.23449662327766418,-0.8018946647644043
1729114532590889200,32.91988916015625,10.427921295166016,-0.11216355860233307,-0.02392822690308094
1729114532628823600,32.957823486328124,9.360123634338379,-0.06191428750753403,-0.5961119532585144
1729114532666758000,32.9957578125,10.17428207397461,0.036191441118717194,-0.14117653667926788
1729114532704692200,33.033692138671874,9.580562591552734,0.05054837837815285,-0.08614161610603333
1729114532742626300,33.07162622070312,9.97298526763916,-0.10259227454662323,-0.16271193325519562
1729114532780560600,33.109560546875,9.659525871276855,-0.06669992953538895,-0.2273181527853012
1729114532818494700,33.14749462890625,10.045069694519043,-0.0810568705201149,-0.17946170270442963
1729114532856429000,33.18542895507812,9.853344917297363,-0.03798605874180794,-0.2632105052471161
1729114532894363100,33.22336303710937,9.980164527893066,-0.05473581701517105,-0.2153540402650833
1729114532932297200,33.26129711914062,9.855737686157227,-0.018843477591872215,-0.21296121180057526
1729114532970231600,33.2992314453125,9.908379554748535,-0.05234299600124359,-0.20817556977272034
1729114533008165600,33.33716552734375,9.84855842590332,-0.03320041298866272,-0.20338992774486542
1729114533046100000,33.37509985351563,9.917950630187988,-0.03798605874180794,-0.21296121180057526
1729114533084034000,33.41303393554688,9.891630172729492,-0.042771704494953156,-0.20338992774486542
1729114533121968400,33.45096850585937,9.903594017028809,-0.045164529234170914,-0.20338992774486542
1729114533159902500,33.48890234375,9.88684368133545,-0.040378883481025696,-0.18903298676013947
1729114533197836800,33.5268369140625,9.908379554748535,-0.04755735024809837,-0.20099709928035736
1729114533235771000,33.56477099609375,9.87966537475586,-0.03080759197473526,-0.21296121180057526
1729114533273705200,33.60270532226563,9.87966537475586,-0.042771704494953156,-0.20099709928035736
1729114533311639300,33.64063940429688,9.905986785888672,0.02183450572192669,-0.2153540402650833
1729114533349573400,33.678573486328126,9.987342834472656,0.12472587823867798,-0.2273181527853012
1729114533387507700,33.7165078125,9.95145034790039,0.4001995921134949,-0.24646073579788208
1729114533425441800,33.75444189453125,9.822237968444824,0.7782655358314514,-0.12921242415905
1729114533463376100,33.792376220703126,9.946664810180664,0.9939187169075012,-0.09092725813388824
1729114533501310200,33.830310302734375,9.905986785888672,1.3576277494430542,-0.23210379481315613
1729114533539244300,33.868244384765624,9.917950630187988,1.5158531665802002,-0.4259224236011505
1729114533577178600,33.9061787109375,9.597312927246094,1.9058831930160522,0.02871387079358101
1729114533615112700,33.94411279296875,10.030413627624512,1.8843477964401245,-0.02392822690308094
1729114533653047000,33.982047119140624,9.427123069763184,1.908276081085205,-0.6607181429862976
1729114533690981000,34.01998120117187,9.628418922424316,1.9250258207321167,-0.09571290761232376
1729114533728915500,34.05791552734375,9.750452995300293,1.7790635824203491,-0.4860421121120453
1729114533766849500,34.095849609375,10.444670677185059,1.8293129205703735,-0.20099709928035736
1729114533804783600,34.13378369140625,9.130413055419922,1.7048860788345337,-0.19381862878799438
1729114533842718000,34.17171801757812,10.17428207397461,0.984347403049469,-0.3756731450557709
1729114533880652000,34.20965209960937,10.53081226348877,1.7599210739135742,-0.1746760457754135
1729114533918586400,34.24758642578125,10.964212417602539,1.7407784461975098,0.08135596662759781
1729114533956520400,34.2855205078125,7.741678714752197,2.815753936767578,-0.1052841991186142
1729114533994454800,34.32345483398438,9.070592880249023,1.9848463535308838,-0.12442677468061447
1729114534032388900,34.36138891601563,11.677572250366211,2.8085756301879883,1.074975609779358
1729114534070323200,34.3993232421875,7.521538734436035,2.257927179336548,-0.5410770177841187
1729114534108257300,34.43725732421875,10.909177780151367,1.9872392416000366,0.3041875660419464
1729114534146191600,34.47519165039063,12.874881744384766,1.3624134063720703,1.2161520719528198
1729114534184125700,34.51312573242188,9.867701530456543,2.791825771331787,-0.4378865361213684
1729114534222059800,34.551059814453126,9.97298526763916,2.2172493934631348,0.17976079881191254
1729114534259994000,34.588994140625,11.502896308898926,1.2762718200683594,0.5362913608551025
1729114534297928200,34.62692822265625,7.519145965576172,1.3959128856658936,-0.016749758273363113
1729114534335862500,34.664862548828125,9.73370361328125,1.5302101373672485,-0.16749759018421173
1729114534373796600,34.702796630859375,11.325827598571777,0.5748756527900696,0.18933209776878357
1729114534411731000,34.74073095703125,8.258827209472656,1.0920244455337524,-0.06939185410737991
1729114534449665000,34.7786650390625,11.663215637207031,-0.4737788736820221,-0.18903298676013947
1729114534487599000,34.81659912109375,12.707084655761719,0.5581258535385132,0.33768710494041443
1729114534525533400,34.854533447265624,10.756036758422852,-0.07148557901382446,-0.4621138870716095
1729114534563467500,34.89246752929687,13.62891960144043,-0.6293123364448547,-0.5171487927436829
1729114534601401900,34.93040185546875,11.337791442871094,0.05294119939208031,0.12711870670318604
1729114534639336000,34.9683359375,8.527122497558594,-0.10019944608211517,-0.4307080805301666
1729114534677270300,35.00627026367187,11.857333183288574,0.024227328598499298,-0.6080760359764099
1729114534715204400,35.04420434570312,8.9581298828125,0.00029910283046774566,-0.5745765566825867
1729114534753138700,35.082138671875,11.007283210754395,0.44805604219436646,-0.39481574296951294
1729114534791072800,35.12007275390625,9.020342826843262,0.08644071966409683,-0.07657032459974289
1729114534829006800,35.1580068359375,11.368898391723633,-0.797109067440033,0.038285162299871445
1729114534866941200,35.19594116210938,6.362814426422119,0.5605186820030212,-0.9311071038246155
1729114534904875300,35.23387524414063,10.011270523071289,-0.6197410821914673,-0.13639089465141296
1729114534942809600,35.2718095703125,11.976974487304688,0.3089732229709625,0.3448655605316162
1729114534980743700,35.30974365234375,7.799405574798584,0.07926224917173386,-0.974177896976471
1729114535018678000,35.34767797851563,12.290733337402344,-0.17198412120342255,0.1701895147562027
1729114535056612000,35.385612060546876,10.521241188049316,-0.22223339974880219,-0.349352091550827
1729114535094546200,35.423546142578125,9.542277336120605,0.3451646566390991,-0.675075113773346
1729114535132480500,35.46148046875,9.60927677154541,0.9412766098976135,0.07657032459974289
1729114535170414600,35.49941455078125,11.586645126342773,0.2515454888343811,-0.031106693670153618
1729114535208349000,35.537348876953125,6.966104984283447,-0.06191428750753403,0.0933200865983963
1729114535246283000,35.575282958984374,8.921937942504883,-0.88803631067276,-0.13160525262355804
1729114535284217300,35.61321728515625,9.676275253295898,-0.4713860750198364,-0.4163511395454407
1729114535322151400,35.6511513671875,7.140780925750732,-0.026021946221590042,-0.4019941985607147
1729114535360085500,35.68908544921875,12.678370475769043,0.055334024131298065,-0.08135596662759781
1729114535398019800,35.72701977539062,10.866106986999512,-0.21266211569309235,-1.0917253494262695
1729114535435954000,35.76495385742187,7.083353042602539,0.582054078578949,-0.15553347766399384
1729114535473888300,35.80288818359375,10.561919212341309,-0.040378883481025696,0.23240290582180023
1729114535511822300,35.840822265625,10.813464164733887,-0.641276478767395,-0.01196411345154047
1729114535549756700,35.87875659179687,10.159924507141113,0.22043879330158234,-0.4426721930503845
1729114535587690800,35.91669067382813,12.563515663146973,-0.32303106784820557,-1.0199406147003174
1729114535625624800,35.95462475585938,9.551849365234375,0.026620151475071907,-0.27756741642951965
1729114535663559200,35.99255908203125,6.436992168426514,0.859621524810791,0.3113660514354706
1729114535701493200,36.0304931640625,10.803893089294434,0.12711870670318604,-1.0462616682052612
1729114535739427600,36.06842749023438,6.666703224182129,0.5629115104675293,-0.1459621787071228
1729114535777361700,36.10636157226563,10.133604049682617,-0.12412767112255096,-0.23210379481315613
1729114535815296000,36.1442958984375,11.560324668884277,-0.2967100143432617,-0.19142581522464752
1729114535853230000,36.18222998046875,9.855737686157227,-0.5024927258491516,1.197009563446045
1729114535891164400,36.220164306640626,11.598609924316406,-0.2030908167362213,-0.524327278137207
1729114535929098500,36.258098388671876,6.64277458190918,-0.698704183101654,-0.9430712461471558
1729114535967032600,36.296032470703125,12.925130844116211,-0.2679961323738098,-0.5267201066017151
1729114536004967000,36.333966796875,8.718548774719238,0.5078766345977783,-0.32303106784820557
1729114536042901000,36.37190087890625,9.917950630187988,0.3762713670730591,-0.01196411345154047
1729114536080835300,36.40983544921875,10.93310546875,0.0768694281578064,-0.854536771774292
1729114536118769400,36.447769287109374,7.53350305557251,-0.1983051747083664,-0.3397808074951172
1729114536156703700,36.485703857421875,8.878867149353027,-0.3900300860404968,-0.10767702013254166
1729114536194637800,36.523637939453124,7.535895824432373,-0.009272187948226929,-0.3613162338733673
1729114536232572000,36.56157202148437,8.78794002532959,-0.21744775772094727,-0.36610186100006104
1729114536270506200,36.59950634765625,11.866905212402344,-0.8353942036628723,0.9720842242240906
1729114536308440300,36.6374404296875,7.748857021331787,-0.06669992953538895,0.08853443711996078
1729114536346374700,36.67537475585937,11.799905776977539,-0.7082754969596863,-0.33499518036842346
1729114536384308700,36.71330883789062,10.437492370605469,0.21804596483707428,-0.797109067440033
1729114536422243000,36.7512431640625,13.583456039428711,0.8141579031944275,-0.4956133961677551
1729114536460177200,36.78917724609375,10.286744117736816,0.12472587823867798,-0.05503492057323456
1729114536498111200,36.827111328125,10.102497100830078,-0.763310432434082,-0.13639089465141296
1729114536536045600,36.86504565429688,6.56620454788208,-0.49292147159576416,-0.8665009140968323
1729114536573979600,36.90297973632813,9.503992080688477,-1.1201400756835938,-0.6080760359764099
1729114536611914000,36.9409140625,9.037093162536621,0.9484550952911377,0.07178468257188797
1729114536649848000,36.97884814453125,6.87517786026001,0.1869392693042755,-0.8234301209449768
1729114536687782400,37.01678247070313,13.633705139160156,-1.3259228467941284,-0.41874396800994873
1729114536725716500,37.05471655273438,9.929914474487305,0.031405795365571976,-0.5841478109359741
1729114536763650600,37.092650634765626,6.44895601272583,0.7328019142150879,-0.8784649968147278
1729114536801585000,37.1305849609375,12.30509090423584,-0.2919243574142456,0.3616153299808502
1729114536839519000,37.16851904296875,11.376076698303223,-0.7250252366065979,-0.019142581149935722
1729114536877453300,37.206453369140625,7.653144359588623,-1.622931957244873,-0.062213387340307236
1729114536915387400,37.244387451171875,7.222136974334717,-1.036391258239746,-0.5123631358146667
1729114536953321700,37.28232177734375,12.80040454864502,-2.561516523361206,0.735194742679596
1729114536991255800,37.320255859375,9.977771759033203,-2.295614242553711,0.4142574071884155
1729114537029190000,37.35818994140625,8.184649467468262,-1.3836497068405151,-0.5506483316421509
1729114537067124200,37.396124267578124,11.991331100463867,-1.8167506456375122,-0.521934449672699
1729114537105058300,37.43405834960937,7.552645683288574,-1.9462621212005615,-0.6559324860572815
1729114537142992600,37.47199267578125,10.50209903717041,-1.77607262134552,-1.3094722032546997
1729114537180926700,37.5099267578125,8.429017066955566,-1.7066807746887207,-0.490827739238739
1729114537218861000,37.54786108398437,12.477374076843262,-1.7784653902053833,0.02632104977965355
1729114537256795100,37.58579516601562,8.854939460754395,-1.165603756904602,-0.5745765566825867
1729114537294729200,37.62372924804688,8.615656852722168,-2.082653045654297,-0.6176473498344421
1729114537332663600,37.66166357421875,10.269994735717773,-2.513660192489624,-0.12203395366668701
1729114537370597600,37.69959765625,9.422337532043457,-2.1041884422302246,0.29700911045074463
1729114537408532000,37.73753198242188,10.329814910888672,-1.8047864437103271,-0.35413774847984314
1729114537446466000,37.77546606445313,10.49970531463623,-2.1185452938079834,-0.31106695532798767
1729114537484400400,37.813400390625,8.814261436462402,-2.3458635807037354,-0.19142581522464752
1729114537522334500,37.85133447265625,9.434301376342773,-2.4320051670074463,-0.34217363595962524
1729114537560268800,37.88926879882813,9.97298526763916,-2.6213371753692627,-0.48364928364753723
1729114537598203000,37.927202880859376,9.74088191986084,-2.1831514835357666,-0.1579262912273407
1729114537636137000,37.965136962890625,9.975378036499023,-2.33389949798584,-0.4788636267185211
1729114537674071300,38.0030712890625,9.803094863891602,-2.061117649078369,-0.15553347766399384
1729114537712005400,38.04100537109375,10.011270523071289,-1.7736797332763672,-0.1052841991186142
1729114537749939700,38.078939697265625,9.87248706817627,-1.3235300779342651,-0.43549370765686035
1729114537787873800,38.116873779296874,9.97298526763916,-1.0052846670150757,-0.3278166949748993
1729114537825808100,38.15480810546875,9.956235885620117,-0.5934200286865234,-0.14835500717163086
1729114537863742200,38.1927421875,9.817452430725098,-0.21266211569309235,-0.20099709928035736
1729114537901676300,38.23067626953125,9.901201248168945,0.05054837837815285,-0.24167509377002716
1729114537939610600,38.26861059570312,9.877272605895996,0.2874378263950348,-0.2225325107574463
1729114537977544700,38.30654467773437,9.915557861328125,0.39062830805778503,-0.21296121180057526
1729114538015479000,38.34447900390625,9.889236450195312,0.3041875660419464,-0.21774685382843018
1729114538053413000,38.3824130859375,9.925128936767578,0.22761724889278412,-0.275174617767334
1729114538091347500,38.42034741210937,9.867701530456543,0.3523431420326233,-0.2512463629245758
1729114538129281500,38.45828149414063,9.889236450195312,0.31854450702667236,-0.21296121180057526
1729114538167215600,38.49621557617188,9.891630172729492,0.19172491133213043,-0.24406790733337402
1729114538205150000,38.53414990234375,9.882058143615723,0.08404789865016937,-0.23449662327766418
1729114538243084000,38.572083984375,9.896415710449219,-0.002093719784170389,-0.24646073579788208
1729114538281018400,38.61001831054688,9.889236450195312,-0.05952146276831627,-0.2584248483181
1729114538318952400,38.64795239257813,9.891630172729492,-0.08344969153404236,-0.23688943684101105
1729114538356886500,38.685886474609376,9.894022941589355,-0.06430710852146149,-0.24406790733337402
1729114538394820900,38.72382080078125,9.903594017028809,-0.03798605874180794,-0.2273181527853012
1729114538432755000,38.7617548828125,9.903594017028809,-0.03080759197473526,-0.23449662327766418
1729114538470689300,38.799689208984375,9.884450912475586,0.0026919255033135414,-0.24167509377002716
1729114538508623400,38.837623291015625,9.910772323608398,0.024227328598499298,-0.23210379481315613
1729114538546557700,38.8755576171875,9.882058143615723,0.036191441118717194,-0.2512463629245758
1729114538584491800,38.91349169921875,9.910772323608398,0.04815555736422539,-0.21296121180057526
1729114538622425900,38.95142578125,9.884450912475586,0.04336991161108017,-0.24406790733337402
1729114538660360200,38.989360107421874,9.894022941589355,0.033798620104789734,-0.2392822653055191
1729114538698294300,39.02729418945312,9.901201248168945,0.03858426585793495,-0.1746760457754135
1729114538736228600,39.065228515625,9.908379554748535,0.0649053156375885,-0.09092725813388824
1729114538774162700,39.10316259765625,9.896415710449219,0.08883354067802429,0.11276176571846008
1729114538812097000,39.14109692382812,10.454241752624512,-0.10977073758840561,0.064606212079525
1729114538850031000,39.17903100585937,8.771190643310547,0.4576273262500763,0.6296114325523376
1729114538887965200,39.21696508789063,10.059426307678223,0.0026919255033135414,1.0773683786392212
1729114538925899500,39.2548994140625,9.788738250732422,-0.026021946221590042,1.1156535148620605
1729114538963833600,39.29283349609375,10.059426307678223,-0.05234299600124359,1.4174482822418213
1729114539001768000,39.33076782226563,10.100104331970215,-0.34217363595962524,1.0701899528503418
1729114539039702000,39.36870190429688,10.018449783325195,-0.8832506537437439,0.5267201066017151
1729114539077636400,39.40663623046875,10.119247436523438,-0.7752745151519775,0.2347957193851471
1729114539115570400,39.4445703125,9.819845199584961,-0.8138588070869446,-0.4019941985607147
1729114539153504500,39.48250439453125,9.917950630187988,-0.88803631067276,-0.2273181527853012
1729114539191438800,39.52043896484375,9.97298526763916,-0.7923234105110168,-0.42352959513664246
1729114539229373000,39.558373046875,9.84138011932373,-0.6101697683334351,-0.31824541091918945
1729114539267307300,39.596307373046876,9.795916557312012,-0.7657032608985901,-0.4163511395454407
1729114539305241300,39.634241455078126,9.819845199584961,-0.6149554252624512,-0.3445664644241333
1729114539343175400,39.672175537109375,9.88684368133545,-0.6652047038078308,-0.23449662327766418
1729114539381109800,39.71010986328125,9.82702350616455,-0.5742774605751038,-0.059820566326379776
1729114539419043800,39.7480439453125,10.023235321044922,-0.5383850932121277,0.06699903309345245
1729114539456978200,39.785978271484375,9.59492015838623,-0.5670989751815796,-0.1986042857170105
1729114539494912300,39.823912353515624,9.276374816894531,-0.5479564070701599,-0.14117653667926788
1729114539532846300,39.86184643554687,9.626026153564453,-0.5168496966362,0.17497515678405762
1729114539570780700,39.89978076171875,10.001699447631836,-0.9574281573295593,-0.15314064919948578
1729114539608714800,39.93771484375,10.444670677185059,-0.7899305820465088,0.02871387079358101
1729114539646649000,39.97564916992187,9.812666893005371,-0.5431707501411438,0.05742774158716202
1729114539684583200,40.01358325195312,9.870094299316406,-0.6484549641609192,-0.04785645380616188
1729114539722517500,40.051517578125,9.862915992736816,-0.8138588070869446,-0.16510476171970367
1729114539760451600,40.08945166015625,9.817452430725098,-0.8282157182693481,-0.059820566326379776
1729114539798385700,40.1273857421875,10.097711563110352,-0.7417750358581543,-0.1698904037475586
1729114539836320000,40.16532006835938,9.786345481872559,-0.7513462901115417,0.019142581149935722
1729114539874254000,40.20325415039063,10.159924507141113,-0.9047860503196716,-0.32542386651039124
1729114539912188400,40.2411884765625,9.72652530670166,-0.7250252366065979,-0.12442677468061447
1729114539950122500,40.27912255859375,10.133604049682617,-0.8832506537437439,-0.43549370765686035
1729114539988056800,40.31705688476563,9.882058143615723,-0.8330013751983643,-0.3613162338733673
1729114540025991000,40.354990966796876,10.191031455993652,-0.8306085467338562,-0.08614161610603333
1729114540063925000,40.392925048828126,9.700203895568848,-0.5982056856155396,0.30658039450645447
1729114540101859300,40.430859375,9.929914474487305,-0.7417750358581543,-0.17228323221206665
1729114540139793400,40.46879345703125,9.855737686157227,-0.8784649968147278,-0.25363919138908386
1729114540177727700,40.506727783203125,9.88684368133545,-0.7465606927871704,0.14865410327911377
1729114540215661800,40.544661865234374,9.95862865447998,-0.8928219676017761,-0.2847459018230438
1729114540253596000,40.582595947265624,9.949057579040527,-0.763310432434082,-1.0223335027694702
1729114540291530200,40.6205302734375,9.760024070739746,-0.638883650302887,-1.1395817995071411
1729114540329464300,40.65846435546875,9.98255729675293,-0.5910272002220154,-1.4937195777893066
1729114540367398700,40.69639868164062,9.913165092468262,-0.5479564070701599,-2.1332013607025146
1729114540405332700,40.73433276367187,10.200602531433105,-0.4666004180908203,-1.9079769849777222
1729114540443267000,40.77226708984375,9.685847282409668,-0.17198412120342255,-0.9000003933906555
1729114540481201200,40.810201171875,10.566704750061035,0.055334024131298065,0.6248258352279663
1729114540519135200,40.84813525390625,9.657133102416992,-0.0930209830403328,-0.10289137065410614
1729114540557069600,40.88606958007812,9.84855842590332,-0.2847459018230438,-0.40677985548973083
1729114540595003600,40.92400366210938,9.855737686157227,-0.10259227454662323,-0.009571290574967861
1729114540632938000,40.96193798828125,10.068997383117676,-0.1743769496679306,-0.20338992774486542
1729114540670872000,40.9998720703125,9.824630737304688,-0.07627122104167938,-0.12921242415905
1729114540708806400,41.03780639648438,9.874879837036133,-0.08823533356189728,-0.1698904037475586
1729114540746740500,41.07574047851563,9.855737686157227,-0.040378883481025696,-0.12203395366668701
1729114540784674600,41.113674560546876,9.913165092468262,-0.07387840002775192,-0.17706887423992157
1729114540822609000,41.15160888671875,9.884450912475586,-0.07387840002775192,-0.13160525262355804
1729114540860543000,41.18954296875,9.917950630187988,-0.09062815457582474,-0.1818545162677765
1729114540898477000,41.22747705078125,9.901201248168945,-0.10019944608211517,-0.13639089465141296
1729114540936411400,41.265411376953125,9.901201248168945,-0.11216355860233307,-0.16271193325519562
1729114540974345500,41.303345458984374,9.88684368133545,-0.12412767112255096,-0.13878370821475983
1729114541012279800,41.34127978515625,9.889236450195312,-0.11216355860233307,-0.17228323221206665
1729114541050214000,41.3792138671875,9.896415710449219,-0.11216355860233307,-0.1459621787071228
1729114541088148200,41.417148193359374,9.896415710449219,-0.10737791657447815,-0.16510476171970367
1729114541126082300,41.45508227539062,9.901201248168945,-0.10259227454662323,-0.14117653667926788
1729114541164016400,41.49301635742187,9.889236450195312,-0.10737791657447815,-0.15553347766399384
1729114541201950700,41.53095068359375,9.905986785888672,-0.10737791657447815,-0.13878370821475983
1729114541239884800,41.568884765625,9.891630172729492,-0.10737791657447815,-0.15074782073497772
1729114541277819100,41.60681909179687,9.884450912475586,-0.10019944608211517,-0.1459621787071228
1729114541315753200,41.64475317382813,9.896415710449219,-0.10498509556055069,-0.15553347766399384
1729114541353687600,41.6826875,9.898808479309082,-0.10977073758840561,-0.1579262912273407
1729114541391621600,41.72062158203125,9.903594017028809,0.21565313637256622,-0.21774685382843018
1729114541429555700,41.7585556640625,9.870094299316406,0.6323033571243286,-0.10049854964017868
1729114541467490000,41.79648999023438,9.95862865447998,1.0704890489578247,-0.05024927482008934
1729114541505424100,41.83442407226563,9.59252643585205,1.5804593563079834,0.016749758273363113
1729114541543358500,41.8723583984375,9.87966537475586,1.6019947528839111,-0.2679961323738098
1729114541581292500,41.91029248046875,10.030413627624512,1.7838492393493652,-0.20578274130821228
1729114541619226600,41.9482265625,9.743274688720703,2.0808584690093994,-0.3038884699344635
1729114541657161000,41.986160888671876,9.73370361328125,2.0210378170013428,-0.06699903309345245
1729114541695095000,42.024094970703125,9.874879837036133,2.1071794033050537,-0.363709032535553
1729114541733029400,42.062029296875,9.956235885620117,1.7718851566314697,-0.6056832075119019
1729114541770963500,42.09996337890625,10.305887222290039,2.0135602951049805,-0.4163511395454407
1729114541808897500,42.1378974609375,9.74088191986084,1.7647067308425903,-0.42831525206565857
1729114541846831900,42.175831787109374,10.236495018005371,1.7048860788345337,0.019142581149935722
1729114541884766000,42.21376586914062,8.529515266418457,1.867598056793213,-0.3732803463935852
1729114541922700300,42.2517001953125,9.5231351852417,1.4919248819351196,-1.8601205348968506
1729114541960634400,42.28963427734375,9.216554641723633,1.6067804098129272,0.02871387079358101
1729114541998568700,42.32756860351562,9.74806022644043,1.2427722215652466,-0.9095717072486877
1729114542036502800,42.36550268554687,6.6714887619018555,1.812563180923462,-0.8114659786224365
1729114542074436900,42.40343676757813,11.696715354919434,0.9675976634025574,-0.35892340540885925
1729114542112371200,42.44137109375,10.854142189025879,1.2882359027862549,-0.3206382393836975
1729114542150305300,42.47930517578125,11.04317569732666,2.45413875579834,-0.6367899179458618
1729114542188239600,42.51723950195313,11.553146362304688,0.7639086246490479,-1.1730812788009644
1729114542226173700,42.55517358398438,9.472586631774902,1.6450655460357666,-0.9406784176826477
1729114542264107800,42.59310766601563,9.769596099853516,2.2627129554748535,-0.8353942036628723
1729114542302042000,42.6310419921875,8.285148620605469,1.726421594619751,-0.8090731501579285
1729114542339976200,42.66897607421875,11.390434265136719,0.9508479237556458,0.20368902385234833
1729114542377910500,42.70691064453125,10.246066093444824,0.8165507316589355,-0.5673980712890625
1729114542415844600,42.7448447265625,7.679465293884277,1.781456470489502,-1.1204391717910767
1729114542453778700,42.78277880859375,9.819845199584961,1.261914849281311,-0.5099703073501587
1729114542491713000,42.820713134765626,9.783952713012695,0.27308088541030884,-0.19381862878799438
1729114542529647000,42.858647216796875,7.4617180824279785,-0.06191428750753403,-0.2512463629245758
1729114542567581400,42.89658154296875,9.302696228027344,0.32572299242019653,-0.24885354936122894
1729114542605515500,42.934515625,13.183555603027344,0.246759831905365,0.27786654233932495
1729114542643449600,42.97244970703125,8.8740816116333,-0.21266211569309235,0.35922250151634216
1729114542681384000,43.010384033203124,12.719048500061035,-0.26081767678260803,1.4820544719696045
1729114542719318000,43.04831811523437,8.644371032714844,-0.00687936507165432,-0.28235307335853577
1729114542757252400,43.08625244140625,11.768798828125,-0.5000999569892883,1.450947880744934
1729114542795186400,43.1241865234375,12.053544998168945,-0.5934200286865234,1.6375880241394043
1729114542833120500,43.16212060546875,8.802297592163086,1.0298110246658325,-0.33020952343940735
1729114542871054800,43.20005493164062,10.820643424987793,-0.2799602448940277,0.5315057039260864
1729114542908989000,43.23798901367188,10.581061363220215,0.11994023621082306,0.7088736891746521
1729114542946923300,43.27592333984375,6.453741550445557,0.7567301392555237,-0.2512463629245758
1729114542984857300,43.313857421875,7.358827114105225,0.7543373107910156,0.5099703073501587
1729114543022791400,43.35179150390625,10.901999473571777,-0.05234299600124359,0.6535396575927734
1729114543060725800,43.38972583007813,5.369194984436035,0.6777670383453369,-0.14117653667926788
1729114543098659800,43.42765991210938,11.660822868347168,0.01704886183142662,1.6064813137054443
1729114543136594200,43.46559423828125,9.71695327758789,0.4049852192401886,0.4980062246322632
1729114543174528300,43.5035283203125,12.597014427185059,-1.1201400756835938,-0.16749759018421173
1729114543212462600,43.541462646484376,10.277173042297363,-1.1943175792694092,1.1204391717910767
1729114543250396700,43.579396728515626,10.636395454406738,0.2228316068649292,0.07178468257188797
1729114543288330800,43.617330810546875,12.0032958984375,-0.46899324655532837,0.20368902385234833
1729114543326265000,43.65526513671875,12.276077270507812,-0.2560320198535919,1.2451651096343994
1729114543364199200,43.69319921875,12.55872917175293,-0.3565305769443512,-0.11006984114646912
1729114543402133200,43.73113330078125,9.250054359436035,-0.11694920808076859,0.49322056770324707
1729114543440067600,43.769067626953124,7.430611610412598,-0.1504487246274948,-0.9622138142585754
1729114543478001700,43.80700170898437,9.333803176879883,-0.4043870270252228,-0.7229315638542175
1729114543515936000,43.84493603515625,11.665608406066895,0.4815555512905121,0.6296114325523376
1729114543553870000,43.8828701171875,9.645169258117676,0.09361918270587921,-0.24167509377002716
1729114543591804400,43.92080444335937,11.610573768615723,-0.6245267391204834,-0.5482555031776428
1729114543629738500,43.95873852539062,9.774381637573242,-0.4091726839542389,0.16301104426383972
1729114543667672600,43.99667260742188,8.89801025390625,0.07447660714387894,0.031106693670153618
1729114543705607000,44.03460693359375,10.95703411102295,-0.3086741268634796,0.5985047817230225
1729114543743541000,44.072541015625,10.478170394897461,0.3329014480113983,0.064606212079525
1729114543781475000,44.11047509765625,9.819845199584961,0.5485545992851257,0.06939185410737991
1729114543819409400,44.14840942382813,13.734203338623047,-0.6269195079803467,0.5554339289665222
1729114543857343500,44.18634350585938,10.104889869689941,-1.2900304794311523,1.257129192352295
1729114543895277800,44.22427783203125,11.672786712646484,-0.03798605874180794,-0.41156548261642456
1729114543933212000,44.2622119140625,5.20169734954834,0.1821536272764206,-0.8330013751983643
1729114543971146200,44.300146240234376,10.744072914123535,0.1701895147562027,0.9361918568611145
1729114544009080300,44.338080322265625,11.052746772766113,-0.04755735024809837,-0.10289137065410614
1729114544047014400,44.376014404296875,11.941082000732422,-0.48095735907554626,2.011167526245117
1729114544084948700,44.41394873046875,8.460124015808105,-0.3445664644241333,-1.4937195777893066
1729114544122882800,44.4518828125,10.799107551574707,-1.2254242897033691,-0.7779664397239685
1729114544160817200,44.489817138671874,9.604491233825684,0.28983065485954285,0.44297128915786743
1729114544198751200,44.527751220703124,10.952248573303223,0.8500502705574036,-1.5777673721313477
1729114544236685300,44.56568530273437,11.744871139526367,-0.23449662327766418,-1.0941181182861328
1729114544274619600,44.60361962890625,8.878867149353027,-0.26081767678260803,0.062213387340307236
1729114544312553700,44.6415537109375,10.756036758422852,-0.729810893535614,-0.6631109714508057
1729114544350488000,44.67948803710937,6.401099681854248,-0.0690927505493164,-0.8784649968147278
1729114544388422100,44.71742211914062,13.291232109069824,-0.4307080805301666,0.02153540402650833
1729114544426356200,44.75535620117188,5.8959150314331055,0.13190434873104095,0.16779668629169464
1729114544464290600,44.79329052734375,8.761619567871094,-0.2584248483181,-0.5769693851470947
1729114544502224600,44.831224609375,6.681358814239502,0.03858426585793495,-0.41874396800994873
1729114544540159000,44.86915893554688,10.365707397460938,-0.33020952343940735,-0.03349951654672623
1729114544578093000,44.90709301757813,5.771488189697266,0.033798620104789734,-0.8377870321273804
1729114544616027100,44.945027099609376,10.286744117736816,0.19172491133213043,-1.079761266708374
1729114544653961500,44.98296142578125,11.126924514770508,0.031405795365571976,-0.363709032535553
1729114544691895600,45.0208955078125,12.740584373474121,0.029012974351644516,-0.2919243574142456
1729114544729830000,45.058829833984376,9.99691390991211,0.5341976284980774,-0.9406784176826477
1729114544767764000,45.096763916015625,9.573384284973145,-1.1105687618255615,-0.9717850685119629
1729114544805698000,45.134697998046875,11.974581718444824,-0.8210372924804688,0.1821536272764206
1729114544843632400,45.17263232421875,4.55055046081543,0.2228316068649292,-0.9430712461471558
1729114544881566500,45.21056640625,10.870892524719238,-0.9430712461471558,-0.09810572862625122
1729114544919500800,45.248500732421874,10.863714218139648,-0.3852444589138031,-0.5673980712890625
1729114544957435000,45.28643481445312,9.376873970031738,-1.989332914352417,-0.8593224287033081
1729114544995369000,45.32436889648437,10.39202880859375,-1.337886929512024,-0.8186444640159607
1729114545033303300,45.36230322265625,8.742476463317871,-0.34217363595962524,0.18454644083976746
1729114545071237400,45.4002373046875,12.240184783935547,-2.027618169784546,-0.5865406394004822
1729114545109171700,45.43817163085937,8.112865447998047,-2.2764716148376465,-1.1802598237991333
1729114545147105800,45.47610571289062,10.712965965270996,-2.630908489227295,-0.11485548317432404
1729114545185040000,45.51403979492188,7.4617180824279785,-1.7593228816986084,0.19651055335998535
1729114545222974200,45.55197412109375,11.876476287841797,-3.186342477798462,-0.26081767678260803
1729114545260908300,45.589908203125,9.544670104980469,-2.0324037075042725,-0.6080760359764099
1729114545298842600,45.62784252929688,11.87169075012207,-2.467897415161133,0.02632104977965355
1729114545336776700,45.66577661132813,9.125627517700195,-1.7784653902053833,-0.610468864440918
1729114545374711000,45.7037109375,9.810274124145508,-2.17836594581604,-0.8377870321273804
1729114545412645000,45.74164501953125,9.585348129272461,-1.8478572368621826,0.12711870670318604
1729114545450579200,45.7795791015625,9.82702350616455,-1.9869401454925537,-0.06939185410737991
1729114545488513500,45.817513427734376,10.329814910888672,-2.195115566253662,-0.19142581522464752
1729114545526447600,45.855447509765625,9.30748176574707,-2.1496520042419434,-0.33020952343940735
1729114545564381700,45.893381591796874,9.72652530670166,-2.5016961097717285,-0.04546362906694412
1729114545602316000,45.93131591796875,9.853344917297363,-2.5160529613494873,-0.14835500717163086
1729114545640250000,45.96925,9.681061744689941,-2.609373092651367,-0.39481574296951294
1729114545678184400,46.007184326171874,9.477372169494629,-2.944368362426758,-0.31106695532798767
1729114545716118500,46.04511840820312,10.025628089904785,-2.8582265377044678,-0.7133602499961853
1729114545754052600,46.08305249023437,9.59252643585205,-2.20947265625,-0.31106695532798767
1729114545791987000,46.120987060546874,10.001699447631836,-2.14725923538208,-0.19381862878799438
1729114545829921000,46.15892114257812,9.721739768981934,-1.8335003852844238,-0.643968403339386
1729114545867855400,46.19685546875,9.977771759033203,-1.4051851034164429,-0.5027918815612793
1729114545905789700,46.23478979492187,9.836594581604004,-0.9334999322891235,-0.380458801984787
1729114545943723500,46.2727236328125,9.927521705627441,-0.6173482537269592,-0.521934449672699
1729114545981657900,46.31065795898437,9.867701530456543,-0.3565305769443512,-0.4043870270252228
1729114546019592000,46.34859204101563,9.915557861328125,-0.16480566561222076,-0.32542386651039124
1729114546057526300,46.3865263671875,9.903594017028809,-0.026021946221590042,-0.363709032535553
1729114546095460400,46.42446044921875,9.88684368133545,0.08883354067802429,-0.4956133961677551
1729114546133394400,46.46239453125,9.877272605895996,0.1582254022359848,-0.2679961323738098
1729114546171328800,46.50032885742188,9.874879837036133,0.09601201117038727,-0.2225325107574463
1729114546209262800,46.538262939453126,9.87966537475586,0.033798620104789734,-0.22013968229293823
1729114546247197200,46.576197265625,9.884450912475586,-0.07387840002775192,-0.24406790733337402
1729114546285131300,46.61413134765625,9.908379554748535,-0.19351953268051147,-0.3684946894645691
1729114546323065300,46.6520654296875,9.882058143615723,-0.24885354936122894,-0.3397808074951172
1729114546360999700,46.689999755859375,9.896415710449219,-0.2991028428077698,-0.3038884699344635
1729114546398933800,46.727933837890625,9.87966537475586,-0.3326023519039154,-0.31824541091918945
1729114546436868000,46.7658681640625,9.898808479309082,-0.31106695532798767,-0.33020952343940735
1729114546474802200,46.80380224609375,9.87966537475586,-0.2967100143432617,-0.37806597352027893
1729114546512736300,46.841736328125,9.915557861328125,-0.2512463629245758,-0.15553347766399384
1729114546550670600,46.87967065429687,9.74806022644043,-0.10019944608211517,-0.014356935396790504
1729114546588604700,46.91760473632812,9.072985649108887,-0.08584251254796982,-0.21296121180057526
1729114546626539000,46.9555390625,9.961021423339844,-0.5886343717575073,-0.7755736112594604
1729114546664473000,46.99347314453125,9.671489715576172,0.005084747914224863,0.20368902385234833
1729114546702407200,47.0314072265625,10.092926025390625,-0.1217348501086235,0.5410770177841187
1729114546740341500,47.06934155273437,9.884450912475586,-0.004486542660742998,0.8452646136283875
1729114546778275600,47.10727563476563,9.968199729919434,-0.13848461210727692,1.225723385810852
1729114546816209700,47.14520971679688,9.853344917297363,-0.3732803463935852,0.8787640929222107
1729114546854144000,47.18314404296875,10.018449783325195,-0.6580262184143066,0.8333004713058472
1729114546892078000,47.221078125,9.652347564697266,-0.607776939868927,0.5937191247940063
1729114546930012400,47.25901245117188,9.60927677154541,-0.021236300468444824,1.1204391717910767
1729114546967946500,47.296946533203126,10.588240623474121,-1.1225329637527466,0.2682952284812927
1729114547005880800,47.334880859375,9.870094299316406,-0.797109067440033,-0.39960137009620667
1729114547043815000,47.37281494140625,9.937093734741211,-1.0603195428848267,-0.646361231803894
